,rt,stimulus,key_press,trial_type,trial_index,time_elapsed,internal_node_id,responses,correct,choices,correct_choice,trial_duration,response_ends_trial,number_of_apertures,number_of_dots,number_of_sets,coherent_direction,coherence,opposite_coherence,dot_radius,dot_life,move_distance,aperture_width,aperture_height,dot_color,background_color,RDK_type,aperture_type,reinsert_type,frame_rate,frame_rate_array,number_of_frames,aperture_center_x,aperture_center_y,fixation_cross,fixation_cross_width,fixation_cross_height,fixation_cross_color,fixation_cross_thickness,border,colour_config,rotation_config,border_color,canvas_width,canvas_height,stair_coh1,stair_coh2
0,41227.0,"<div style='background: #d3d3d3;padding: 20px;'><h3> Welcome to this online experiment </h3><p>Sit down comfortably in front of your computer.</p><p>The whole experiment should take about 40 minutes with short breaks. The experiment consists of two parts.</p><p><b>Part 1</b> is shorter and tests whether you qualify to take part in the next part of the experiment.</p><p><b>Part 2</b> is longer. During part 2 you will be also given some breaks.</p><p>You can take as much time as needed during the breaks, but the total time limit for the experiment is  115 minutes.</p>Press <b>SPACE</b> to proceed</div>",32.0,html-keyboard-response,0,41247,0.0-0.0,,,,,,,,,,,,,,,,,,,,,,,,,,,,,,,,,,,,,,,,
1,135409.0,"<div style='background: #d3d3d3;padding: 20px; font-size: 14px;'><h2>General information sheet</h4><b>Introduction.</b> You are being invited to take part in a research study. Before you decide it is important for you to understand why the research is being done and what it will involve. Please take time to read the following information carefully and discuss it with others if you wish. You are free to take as much time as you like to decide whether you wish to participate.<br><b>What is the purpose of the study?</b> The aim of this research is to understand more about how the human brain makes simple decisions.<br><b>Why have I been chosen?</b> As a volunteer you responded to our request for healthy adult subjects to participate in the study.<br><b>Who is organizing this study?</b> This study is organized by researchers at the School of Psychology, Cardiff University.<br><b>Do I have to take part?</b> It is up to you to decide whether or not to take part. If you do decide to take part, you will be asked to sign the consent form on the next page. If you decide to take part, you are still free to withdraw at any time and without giving a reason.<br><b>What does the general procedure involve?</b> Participants will be invited to complete some surveys and behavioural experiments online, using a computer with internet access and a keyboard or a mouse to respond. You would perform some psychological tests of decision making, after careful instruction and a chance to practice. Typically, participants would see dots moving on the screen and they have to decide towards which platform (red or blue) the dots are moving.The experiment consists of 2 parts. The participants might get qualified to part 2 based on their performance from the part 1. Specific instructions will be given before each task. These tests do not use distressing material and are not designed to be stressful or to catch you out.<br><b>What are the possible benefits of taking part? </b>Since we are only studying healthy volunteers, there is no intended clinical benefit to you from taking part in this study. <br><b>Are the procedure and results confidential?</b> All information that is collected about you during the course of this research will be kept anonymous. Demographic information (age, gender, etc.) will be paired with participants' IDs, which are not identifiable or traceable to individuals. We may share the anonymized research data we collect with other researchers. However, any shared data will not contain any personal information so that you cannot be recognised from it. In any sort of report we might publish we will not include information that will make it possible for other people to know your name or identify you in any way.<br>The information provided will be held in compliance with GDPR regulations. Cardiff University is the Data Controller and is committed to respecting and protecting your personal data in accordance with your expectations and Data Protection legislation. The University has a Data Protection Officer who can be contacted at <i>inforequest@cardiff.ac.uk</i>. Further information about Data Protection, including your rights and details about how to contact the Information Commissioner’s Office should you wish to complain, can be found at the following: <i>https://www.cardiff.ac.uk/public-information/policies-and-procedures/data-protection.</i> <br><b>What will happen to the results of the research study? </b>When data from volunteers are collected, they will be analysed and written up for publication in a scientific journal. Where appropriate, the results of this study will be presented at scientific conferences and the media. You will not be identified in any report or publication. <br><b>Who has reviewed the study?</b> This study has been reviewed and approved by the Cardiff University School of Psychology Ethics Committee.<br><b>Contact for Further Information: </b> Dominik Krzeminski (<i>krzeminskidk@cardiff.ac.uk</i>)<br><br>Press <b>SPACE</b> to proceed</div></div>",32.0,html-keyboard-response,1,176658,0.0-1.0,,,,,,,,,,,,,,,,,,,,,,,,,,,,,,,,,,,,,,,,
2,32389.41500009969,,,survey-html-form,2,209051,0.0-2.0,,,,,,,,,,,,,,,,,,,,,,,,,,,,,,,,,,,,,,,,
3,48108.0,,,survey-multi-choice,3,257176,0.0-3.0,,,,,,,,,,,,,,,,,,,,,,,,,,,,,,,,,,,,,,,,
4,,,,pavlovia,4,257185,0.0-4.0,,,,,,,,,,,,,,,,,,,,,,,,,,,,,,,,,,,,,,,,
5,9807.0,<div style='background: #d3d3d3;padding: 20px;'><p>In this experiment you need to be both fast and accurate.</p><p><b>Remember to be accurate first!</b> <br/>If you commit too many mistakes the experiment might end prematurely and <u>you may not receive the payment</u>.</p>Press <b>SPACE</b> to proceed</div>,32.0,html-keyboard-response,5,266993,0.0-5.0,,,,,,,,,,,,,,,,,,,,,,,,,,,,,,,,,,,,,,,,
6,46628.0,"<div style='background: #d3d3d3;padding: 20px;'><p>You will see dots moving towards four platforms on the edge. Two platforms are in red, and the other two are in blue. </p><h3> You need to decide towards which pair of coloured platforms (red or blue) the dots are moving on average.</h3><p>Use your right middle finger to press <b> p</b> for <font color='blue'> blue </font> (right).</br> Use your right index finger to press <b>k</b> for <font color='red'> red </font>(left).</p>Press <b>SPACE</b> to proceed</div>",32.0,html-keyboard-response,6,313624,0.0-6.0,,,,,,,,,,,,,,,,,,,,,,,,,,,,,,,,,,,,,,,,
7,,"<font color='grey'>B:Mozilla/5.0 (Windows NT 10.0; Win64; x64) AppleWebKit/537.36 (KHTML, like Gecko) Chrome/84.0.4147.135 Safari/537.36,R:1366,728</font>",,html-keyboard-response,7,313639,0.0-7.0,,,,,,,,,,,,,,,,,,,,,,,,,,,,,,,,,,,,,,,,
8,29237.0,"<div style='background: #d3d3d3;padding: 20px;'><p>Welcome to the <b>PART 1</b> of the experiment.</p><br/><p>In this part, please focus only on WHITE dots on the screen and ignore the BLACK ones.</p><p>Let's start with some practice exercises.</p><p>Remember the task: decide towards which coloured platform (red or blue) the dots are moving on average</p>Press <b>SPACE</b> to proceed</div>",32.0,html-keyboard-response,8,342882,0.0-8.0,,,,,,,,,,,,,,,,,,,,,,,,,,,,,,,,,,,,,,,,
9,-1.0,,-1.0,RDK,9,346897,0.0-9.0-0.0,,False,"k,p",k,4000.0,True,2.0,100.0,1.0,"90,90","0,0.8",0.0,2.0,7.0,2.0,140.0,550.0,"black,white",gray,2.0,4.0,2.0,17.143469827715307,"[74.77999990805984,39.3700001295656,15.72999986819923,24.510000133886933,37.85500000230968,6.675000069662929,22.475000005215406,15.029999893158674,27.1399999037385,15.540000051259995,16.370000084862113,17.035000026226044,16.940000001341105,15.974999871104956,16.260000178590417,18.489999929443,15.76999993994832,19.890000112354755,14.659999869763851,14.750000089406967,17.0650000218302,24.089999962598085,14.934999868273735,12.285000178962946,14.61999979801476,15.85500012151897,16.860000090673566,16.71999995596707,17.19499984756112,16.44500019028783,16.26499998383224,16.80999994277954,16.62499993108213,18.240000121295452,15.314999967813492,17.669999971985817,15.26500005275011,16.964999958872795,16.88000001013279,16.68999996036291,16.70500007458031,16.515000024810433,16.404999885708094,16.779999947175384,17.035000026226044,16.605000011622906,16.24000002630055,16.56999997794628,16.594999935477972,18.090000143274665,16.12999988719821,15.705000143498182,17.460000002756715,16.124999849125743,17.59000006131828,16.319999936968088,16.885000048205256,15.595000004395843,16.99999999254942,16.370000084862113,16.95999992080033,16.659999964758754,16.71999995596707,16.73500007018447,16.54500002041459,18.11000006273389,15.404999954625964,16.525000100955367,16.76999987103045,16.485000029206276,17.484999960288405,16.47999999113381,17.0800001360476,15.689999796450138,17.480000155046582,16.219999874010682,17.85499998368323,15.185000142082572,16.14500000141561,16.869999933987856,16.869999933987856,19.105000188574195,17.489999998360872,13.180000009015203,16.67499984614551,16.940000001341105,17.549999989569187,18.79999996162951,13.565000146627426,17.865000059828162,16.094999853521585,16.150000039488077,16.980000073090196,16.085000010207295,16.80999994277954,16.829999862238765,16.685000155121088,17.78499991632998,15.765000134706497,16.139999963343143,16.915000043809414,16.910000005736947,16.494999872520566,16.564999939873815,17.81500014476478,15.475000021979213,16.694999998435378,16.814999980852008,16.764999832957983,16.170000191777945,16.629999969154596,16.629999969154596,17.694999929517508,16.874999972060323,15.38500003516674,16.940000001341105,16.724999994039536,16.915000043809414,17.7350000012666,15.734999906271696,16.055000014603138,16.835000133141875,16.679999884217978,18.10500002466142,15.734999906271696,16.260000178590417,16.90499996766448,16.444999957457185,17.079999903216958,16.390000004321337,16.30500005558133,17.054999945685267,16.47999999113381,17.27000018581748,16.04999997653067,16.539999982342124,16.779999947175384,16.645000083371997,16.659999964758754,16.58499985933304,16.430000076070428,18.58499995432794,15.300000086426735,16.33500005118549,24.495000019669533,10.860000038519502,14.764999970793724,16.40999992378056,16.969999996945262,16.940000001341105,16.43499988131225,16.080000204965472,16.90499996766448,16.910000005736947,16.605000011622906,16.844999976456165,17.40999985486269,15.560000203549862,16.614999854937196,16.985000111162663,18.019999843090773,17.48500019311905,14.374999795109034,16.765000065788627,17.315000062808394,16.55499986372888,16.59000013023615,16.324999975040555,16.234999988228083,16.71000011265278,16.64999988861382,17.20000011846423,16.309999860823154,16.56000013463199,16.74499991349876,17.18500000424683,16.43499988131225,16.64000004529953,16.354999970644712,16.820000018924475,16.89500012435019,17.70500000566244,15.64999995753169,16.069999895989895,17.01500010676682,16.899999929592013,17.09500001743436,15.919999917969108,16.96500019170344,16.474999953061342,16.829999862238765,16.985000111162663,16.59999997355044,17.269999952986836,16.550000058487058,15.894999960437417,16.71000011265278,18.22500000707805,14.879999915137887,16.40000008046627,16.924999887123704,18.314999993890524,15.175000065937638,16.88000001013279,15.954999951645732,16.844999976456165,16.814999980852008,17.09500001743436,16.36000000871718,16.534999944269657,16.380000161007047,16.850000014528632,16.72999979928136,16.840000171214342,16.749999951571226,16.444999957457185,16.45500003360212,16.765000065788627,22.634999826550484,11.740000220015645,15.989999985322356,16.419999999925494,16.5049999486655,17.509999917820096,16.40999992378056,16.155000077560544,16.790000023320317,17.045000102370977,16.044999938458204,21.609999937936664,11.475000064820051,16.814999980852008]",232.0,683.0,312.5,False,20.0,20.0,black,1.0,True,2.0,"20,-20",black,1366.0,625.0,,
10,,<h2 style='background: white;padding: 10px;'> <font color='red'> Wrong. </font>  </h2>,,html-keyboard-response,10,347452,0.0-9.0-1.0,,,,,,,,,,,,,,,,,,,,,,,,,,,,,,,,,,,,,,,,
11,1068.8349998090416,,80.0,RDK,11,348526,0.0-9.1-0.1,,False,"k,p",k,4000.0,True,2.0,100.0,1.0,"90,90","0,0.8",0.0,2.0,7.0,2.0,140.0,550.0,"black,white",gray,2.0,4.0,2.0,17.099016391840134,"[33.43999991193414,8.92499997280538,40.52500007674098,17.505000112578273,13.819999992847443,15.2749998960644,18.854999914765358,13.335000025108457,16.130000120028853,17.285000067204237,15.799999935552478,17.02499995008111,16.774999909102917,16.900000162422657,18.404999980702996,14.895000029355288,19.32999980635941,13.020000187680125,16.86499989591539,16.730000032112002,16.559999901801348,18.495000200346112,14.339999994263053,16.669999808073044,16.77500014193356,17.259999876841903,16.390000004321337,15.825000125914812,16.86499989591539,17.029999988153577,17.115000169724226,15.87499980814755,16.324999975040555,17.090000212192535,16.67499984614551,17.480000155046582,15.794999897480011,16.465000109747052,16.679999884217978,17.070000059902668,20.659999921917915,12.189999921247363,16.980000073090196,16.724999994039536,16.555000096559525,17.164999851956964,16.770000103861094,15.949999913573265,16.934999963268638,16.645000083371997,17.075000097975135,16.899999929592013,15.76000009663403,16.774999909102917,16.73500007018447,17.484999960288405,15.879999846220016,16.72500022687018,16.679999884217978,16.80000009946525,16.029999824240804]",61.0,683.0,312.5,False,20.0,20.0,black,1.0,True,2.0,"20,-20",black,1366.0,625.0,,
12,,<h2 style='background: white;padding: 10px;'> <font color='red'> Wrong. </font>  </h2>,,html-keyboard-response,12,349082,0.0-9.1-1.1,,,,,,,,,,,,,,,,,,,,,,,,,,,,,,,,,,,,,,,,
13,701.1249999050052,,75.0,RDK,13,349786,0.0-9.2-0.2,,True,"k,p",k,4000.0,True,2.0,100.0,1.0,"90,90","0,0.8",0.0,2.0,7.0,2.0,140.0,550.0,"black,white",gray,2.0,4.0,2.0,16.42357142797361,"[24.904999881982803,14.024999924004078,9.215000085532665,11.274999938905239,16.28000009804964,12.674999888986349,16.985000111162663,16.86499989591539,17.20000011846423,16.52999990619719,15.810000011697412,16.950000077486038,16.704999841749668,16.580000054091215,17.65500009059906,16.24999986961484,15.985000180080533,16.534999944269657,16.94500003941357,17.10499986074865,16.960000153630972,15.599999809637666,16.770000103861094,17.32999994419515,16.860000090673566,16.66500000283122,15.86499996483326,16.795000061392784,16.499999910593033,17.21499999985099,16.964999958872795,15.950000146403909,17.259999876841903,16.45500003360212,16.395000042393804,16.74499991349876,18.090000143274665,15.439999988302588,16.94500003941357,16.379999928176403,17.28999987244606,16.840000171214342]",42.0,683.0,312.5,False,20.0,20.0,black,1.0,True,2.0,"20,-20",black,1366.0,625.0,,
14,,<h2 style='background: white;padding: 10px;'> <font color='green'>Correct! </font> </h2>,,html-keyboard-response,14,350342,0.0-9.2-1.2,,,,,,,,,,,,,,,,,,,,,,,,,,,,,,,,,,,,,,,,
15,5765.0,<div style='background: #d3d3d3;padding: 20px;'><p>Let's try one more time.</p>Press <b>SPACE</b> to proceed</div>,32.0,html-keyboard-response,15,356109,0.0-10.0,,,,,,,,,,,,,,,,,,,,,,,,,,,,,,,,,,,,,,,,
16,2248.6100001260643,,80.0,RDK,16,358361,0.0-11.0-0.0,,True,"k,p",p,4000.0,True,2.0,100.0,1.0,"-90,-90","0.5,0",0.0,2.0,7.0,2.0,140.0,550.0,"white,black",gray,2.0,4.0,2.0,16.869734847480714,"[44.824999989941716,15.859999926760793,22.970000049099326,11.214999947696924,12.575000058859587,14.814999885857105,16.07000012882054,16.645000083371997,16.549999825656414,18.120000138878822,21.969999885186553,14.375000027939677,13.44999996945262,15.475000021979213,16.92000008188188,19.34499992057681,14.220000011846423,16.765000065788627,16.694999998435378,15.979999909177423,16.980000073090196,16.86499989591539,16.47000014781952,15.989999985322356,16.734999837353826,16.960000153630972,16.404999885708094,16.509999986737967,17.355000134557486,16.189999878406525,18.43000017106533,22.769999923184514,11.209999909624457,14.145000139251351,17.26499991491437,17.234999919310212,19.520000088959932,12.704999884590507,16.875000204890966,17.319999868050218,16.59000013023615,20.554999820888042,12.250000145286322,16.90499996766448,16.430000076070428,16.319999936968088,17.435000045225024,16.54500002041459,16.989999916404486,16.95499988272786,16.49500010535121,16.924999887123704,16.13500015810132,16.704999841749668,15.654999995604157,16.81500021368265,17.614999786019325,16.47000014781952,16.74499991349876,18.829999957233667,15.10499999858439,15.090000117197633,17.070000059902668,16.219999874010682,17.435000045225024,16.085000010207295,16.80000009946525,18.259999807924032,20.00000001862645,12.240000069141388,16.469999914988875,16.419999999925494,17.865000059828162,24.394999956712127,12.73000007495284,16.610000049695373,12.189999921247363,16.890000086277723,20.819999976083636,14.190000016242266,14.710000017657876,16.524999868124723,16.610000049695373,17.75999995879829,15.965000027790666,20.400000037625432,15.415000030770898,14.195000054314733,17.11999997496605,16.749999951571226,19.924999913200736,14.805000042542815,15.979999909177423,15.040000202134252,18.589999992400408,14.25000000745058,16.669999808073044,16.930000158026814,16.469999914988875,18.2950000744313,17.32999994419515,14.58499999716878,16.550000058487058,16.8550000526011,16.654999926686287,17.08999997936189,16.724999994039536,15.76999993994832,16.960000153630972,17.669999971985817,16.19499991647899,16.74499991349876,17.035000026226044,15.899999998509884,16.985000111162663,16.980000073090196,16.36999985203147,16.925000119954348,15.734999906271696,17.20999996177852,16.940000001341105,23.00500008277595,11.979999952018261,14.214999973773956,16.980000073090196,17.405000049620867,21.955000003799796,11.594999814406037,15.160000184550881,16.940000001341105,17.579999985173345,21.349999820813537]",132.0,683.0,312.5,False,20.0,20.0,black,1.0,True,2.0,"20,-20",black,1366.0,625.0,,
17,,<h2 style='background: white;padding: 10px;'> <font color='green'>Correct! </font> </h2>,,html-keyboard-response,17,358915,0.0-11.0-1.0,,,,,,,,,,,,,,,,,,,,,,,,,,,,,,,,,,,,,,,,
18,3377.0,<div style='background: #d3d3d3;padding: 20px;'><p>With time trials will start getting more difficult.</p>Press <b>SPACE</b> to proceed</div>,32.0,html-keyboard-response,18,362294,0.0-12.0,,,,,,,,,,,,,,,,,,,,,,,,,,,,,,,,,,,,,,,,
19,2651.200000196696,,75.0,RDK,19,364949,0.0-13.0-0.0,,True,"k,p",k,4000.0,True,2.0,100.0,1.0,"90,90","0.1,0",0.0,2.0,7.0,2.0,140.0,550.0,"white,black",gray,2.0,4.0,2.0,17.23016339987273,"[46.855000080540776,14.870000071823597,27.63499994762242,15.48000006005168,16.24999986961484,16.684999922290444,16.955000115558505,15.404999954625964,17.970000160858035,16.28999994136393,18.84999987669289,13.58500006608665,17.260000109672546,16.319999936968088,17.0499999076128,16.88000001013279,16.47999999113381,17.11000013165176,15.64999995753169,17.220000037923455,16.76000002771616,16.844999976456165,16.54500002041459,15.98499994724989,18.18499993532896,15.774999978020787,16.49500010535121,18.89499998651445,14.08999995328486,17.100000055506825,16.829999862238765,17.39000016823411,49.32999983429909,13.96999997086823,8.945000125095248,12.92999996803701,34.884999971836805,15.330000082030892,14.255000045523047,16.239999793469906,20.545000210404396,13.419999973848462,15.299999853596091,18.21500016376376,22.234999807551503,11.980000184848905,14.284999808296561,16.54500002041459,17.37500005401671,25.09999996982515,11.990000028163195,13.030000030994415,16.30500005558133,16.44999999552965,27.384999906644225,11.150000151246786,12.72499980404973,16.840000171214342,15.119999879971147,18.554999958723783,15.730000101029873,16.499999910593033,15.830000163987279,17.31499982997775,14.72000009380281,18.72999989427626,51.635000156238675,11.719999834895134,14.750000089406967,11.859999969601631,13.294999953359365,19.775000168010592,11.574999894946814,16.00000006146729,15.944999875500798,24.30000016465783,12.974999845027924,13.930000131949782,15.039999969303608,18.165000015869737,15.464999945834279,18.954999977722764,15.21500013768673,15.824999893084168,16.83000009506941,16.764999832957983,16.670000040903687,17.609999980777502,14.970000134781003,16.724999994039536,16.844999976456165,16.33500005118549,17.044999869540334,16.06500009074807,17.299999948590994,17.669999971985817,14.965000096708536,16.099999891594052,16.910000005736947,16.714999917894602,17.91000016964972,15.260000014677644,16.67499984614551,16.585000092163682,16.890000086277723,16.994999954476953,16.55499986372888,16.220000106841326,16.799999866634607,17.010000068694353,16.654999926686287,19.850000040605664,13.685000129044056,19.124999875202775,18.41500005684793,14.195000054314733,19.334999844431877,13.789999997243285,18.250000197440386,13.09000002220273,16.949999844655395,17.02499995008111,16.21500006876886,16.419999999925494,16.605000011622906,16.97500003501773,17.28999987244606,15.700000105425715,16.694999998435378,16.694999998435378,16.550000058487058,16.874999972060323,16.910000005736947,16.559999901801348,16.80000009946525,16.109999967738986,16.539999982342124,18.085000105202198,15.969999833032489,16.200000187382102,17.08999997936189,16.31499989889562,16.925000119954348,16.644999850541353,16.594999935477972,16.250000102445483,16.795000061392784,16.874999972060323,16.58499985933304,16.715000150725245,16.71999995596707,16.31499989889562,17.03000022098422]",153.0,683.0,312.5,False,20.0,20.0,black,1.0,True,2.0,"20,-20",black,1366.0,625.0,,
20,,<h2 style='background: white;padding: 10px;'> <font color='green'>Correct! </font> </h2>,,html-keyboard-response,20,365511,0.0-13.0-1.0,,,,,,,,,,,,,,,,,,,,,,,,,,,,,,,,,,,,,,,,
21,2452.0,<div style='background: #d3d3d3;padding: 20px;'><p>Let's try a few more times to practice.</p>Press <b>SPACE</b> to proceed</div>,32.0,html-keyboard-response,21,367967,0.0-14.0,,,,,,,,,,,,,,,,,,,,,,,,,,,,,,,,,,,,,,,,
22,1996.4349998626856,,75.0,RDK,22,369968,0.0-15.0-0.0,,True,"k,p",k,-1.0,True,2.0,100.0,1.0,"90,90","0.4,0",0.0,2.0,7.0,2.0,140.0,550.0,"white,black",gray,2.0,4.0,2.0,16.624201681981443,"[31.885000178590417,13.21000000461936,8.844999829307199,12.975000077858567,13.18500004708767,25.290000019595027,9.63500002399087,12.799999909475446,17.130000051110983,17.155000008642673,15.750000020489097,17.20999996177852,16.820000018924475,16.88000001013279,16.754999989643693,16.55499986372888,16.09500008635223,17.0499999076128,16.620000125840306,17.28000002913177,16.330000013113022,16.069999895989895,16.80000009946525,16.829999862238765,16.410000156611204,17.24999980069697,15.725000062957406,17.0650000218302,16.8399999383837,16.960000153630972,16.55499986372888,16.820000018924475,16.060000052675605,16.45500003360212,17.09500001743436,17.404999816790223,16.25500014051795,16.109999967738986,16.629999969154596,16.42500003799796,17.25500007160008,17.02499995008111,16.180000035092235,16.399999847635627,17.4150001257658,16.354999970644712,17.139999894425273,16.490000067278743,16.060000052675605,16.754999989643693,16.885000048205256,16.43499988131225,16.71000011265278,17.32999994419515,17.37500005401671,15.099999960511923,17.805000068619847,16.1549998447299,16.23000018298626,16.56999997794628,16.850000014528632,17.0499999076128,17.47999992221594,15.935000032186508,15.700000105425715,18.30499991774559,15.36999992094934,17.145000165328383,16.069999895989895,16.61500008776784,17.14499993249774,15.894999960437417,17.764999996870756,17.484999960288405,15.515000093728304,16.130000120028853,16.924999887123704,17.530000070109963,16.150000039488077,16.22499991208315,17.035000026226044,16.419999999925494,16.844999976456165,16.714999917894602,16.139999963343143,17.029999988153577,16.860000090673566,16.490000067278743,16.749999951571226,17.139999894425273,15.800000168383121,16.414999961853027,16.874999972060323,17.54499995149672,16.66500000283122,16.085000010207295,16.36000000871718,16.64000004529953,17.484999960288405,16.419999999925494,16.509999986737967,16.25500014051795,16.989999916404486,16.924999887123704,17.61500001884997,15.654999995604157,16.090000048279762,17.290000105276704,17.09500001743436,16.294999979436398,16.844999976456165,15.974999871104956,16.675000078976154,17.005000030621886,17.419999931007624,16.310000093653798,15.780000016093254,16.679999884217978,16.985000111162663]",119.0,683.0,312.5,False,20.0,20.0,black,1.0,True,2.0,"20,-20",black,1366.0,625.0,,
23,,<h2 style='background: white;padding: 10px;'> <font color='green'>Correct! </font> </h2>,,html-keyboard-response,23,370526,0.0-15.0-1.0,,,,,,,,,,,,,,,,,,,,,,,,,,,,,,,,,,,,,,,,
24,1881.1849998310208,,75.0,RDK,24,372455,0.0-15.1-0.1,,True,"k,p",k,-1.0,True,2.0,100.0,1.0,"90,90","0.4,0",0.0,2.0,7.0,2.0,140.0,550.0,"white,black",gray,2.0,4.0,2.0,16.650312499093292,"[25.0299999024719,20.179999992251396,13.190000085160136,11.91499992273748,12.710000155493617,16.069999895989895,17.054999945685267,15.740000177174807,16.76999987103045,16.64000004529953,15.840000007301569,17.44000008329749,17.729999963194132,16.33500005118549,17.919999780133367,26.780000189319253,10.204999940469861,12.910000048577785,22.584999911487103,11.850000126287341,14.154999982565641,15.084999846294522,17.100000055506825,20.329999970272183,12.35500001348555,16.54500002041459,16.8550000526011,16.700000036507845,17.34499982558191,17.669999971985817,15.300000086426735,16.790000023320317,16.700000036507845,17.0499999076128,16.330000013113022,16.210000030696392,16.934999963268638,16.56000013463199,17.729999963194132,15.725000062957406,16.574999783188105,16.500000143423676,16.885000048205256,16.55499986372888,18.309999955818057,15.100000193342566,16.86499989591539,16.379999928176403,16.960000153630972,17.90499989874661,15.395000111311674,16.92999992519617,16.019999980926514,16.555000096559525,17.950000008568168,15.934999799355865,16.075000166893005,16.64999988861382,16.795000061392784,17.54499995149672,17.225000075995922,15.554999932646751,16.78499998524785,16.1699999589473,17.210000194609165,16.244999831542373,16.66500000283122,16.92000008188188,16.86499989591539,16.635000007227063,17.140000127255917,17.164999851956964,16.270000021904707,16.220000106841326,16.349999932572246,17.010000068694353,16.365000046789646,16.14500000141561,16.874999972060323,16.52999990619719,17.21499999985099,16.44000015221536,16.81999978609383,16.405000118538737,16.890000086277723,17.054999945685267,16.180000035092235,17.23999995738268,15.549999894574285,16.770000103861094,17.08999997936189,17.16000004671514,17.62499986216426,14.949999982491136,16.490000067278743,17.21499999985099,16.779999947175384,16.45500003360212,16.670000040903687,16.64999988861382,16.685000155121088,17.56999990902841,17.690000124275684,20.9500000346452,17.044999869540334,12.619999935850501,14.560000039637089,26.03500010445714,13.47499992698431,13.514999998733401,13.8499999884516,16.594999935477972]",112.0,683.0,312.5,False,20.0,20.0,black,1.0,True,2.0,"20,-20",black,1366.0,625.0,,
25,,<h2 style='background: white;padding: 10px;'> <font color='green'>Correct! </font> </h2>,,html-keyboard-response,25,373021,0.0-15.1-1.1,,,,,,,,,,,,,,,,,,,,,,,,,,,,,,,,,,,,,,,,
26,1512.1850001160055,,80.0,RDK,26,374536,0.0-15.2-0.2,,True,"k,p",p,-1.0,True,2.0,100.0,1.0,"-90,-90","0,0.4",0.0,2.0,7.0,2.0,140.0,550.0,"black,white",gray,2.0,4.0,2.0,16.649277777307564,"[26.94000001065433,10.765000013634562,14.049999881535769,16.10499992966652,14.510000124573708,15.98499994724989,16.525000100955367,16.134999925270677,16.874999972060323,16.97500003501773,17.059999983757734,16.740000108256936,15.734999906271696,16.90499996766448,17.08999997936189,19.025000045076013,15.794999897480011,14.805000042542815,16.525000100955367,16.99999999254942,26.384999975562096,11.544999899342656,12.315000174567103,16.184999840334058,17.609999980777502,21.810000063851476,11.700000148266554,13.844999950379133,18.49499996751547,17.16000004671514,23.684999905526638,13.61000002361834,12.164999963715672,16.234999988228083,16.54500002041459,17.58500002324581,16.66500000283122,16.95999992080033,15.700000105425715,16.58499985933304,18.580000149086118,15.149999875575304,16.75000018440187,16.334999818354845,17.125000013038516,17.61500001884997,15.684999991208315,22.425000090152025,12.679999927058816,14.175000134855509,17.55499979481101,22.665000054985285,13.525000074878335,13.224999886006117,16.42500003799796,16.765000065788627,16.684999922290444,18.314999993890524,15.774999978020787,15.755000058561563,18.489999929443,16.51000021956861,15.359999844804406,19.194999942556024,14.450000133365393,16.085000010207295,16.679999884217978,17.4150001257658,20.484999986365438,12.085000053048134,16.524999868124723,17.96500012278557,28.359999880194664,10.119999991729856,11.725000105798244,15.314999967813492,16.28999994136393,29.529999941587448,9.620000142604113,12.269999831914902,15.715000219643116,16.55499986372888,17.87000009790063,15.449999831616879,16.995000187307596,16.419999999925494,16.78499998524785,17.869999865069985,17.905000131577253,14.854999957606196]",90.0,683.0,312.5,False,20.0,20.0,black,1.0,True,2.0,"20,-20",black,1366.0,625.0,,
27,,<h2 style='background: white;padding: 10px;'> <font color='green'>Correct! </font> </h2>,,html-keyboard-response,27,375091,0.0-15.2-1.2,,,,,,,,,,,,,,,,,,,,,,,,,,,,,,,,,,,,,,,,
28,1130.7000000961125,,75.0,RDK,28,376225,0.0-15.3-0.3,,True,"k,p",k,-1.0,True,2.0,100.0,1.0,"90,90","0.4,0",0.0,2.0,7.0,2.0,140.0,550.0,"white,black",gray,2.0,4.0,2.0,16.66179104402328,"[26.900000171735883,14.984999783337116,12.240000069141388,23.994999937713146,10.030000004917383,11.735000181943178,13.309999834746122,26.99499996379018,9.91500006057322,11.859999969601631,16.02500001899898,16.790000023320317,26.525000110268593,11.814999859780073,12.255000183358788,15.579999890178442,16.509999986737967,26.774999918416142,14.075000071898103,13.819999992847443,15.025000087916851,13.939999975264072,17.925000051036477,15.999999828636646,16.49500010535121,16.439999919384718,16.100000124424696,17.250000033527613,17.82499998807907,15.264999819919467,16.5200000628829,16.940000001341105,16.180000035092235,16.980000073090196,16.869999933987856,16.395000042393804,18.55999999679625,14.60999995470047,18.53500003926456,20.194999873638153,13.040000107139349,15.099999960511923,16.559999901801348,22.98000012524426,12.279999908059835,14.7600001655519,16.539999982342124,16.99999999254942,17.379999859258533,16.45500003360212,16.68000011704862,16.354999970644712,16.309999860823154,16.915000043809414,16.66500000283122,17.075000097975135,18.154999939724803,14.239999931305647,16.780000180006027,18.37499998509884,15.734999906271696,18.75000004656613,13.904999941587448,16.474999953061342,18.314999993890524,25.270000100135803,12.0599998626858]",67.0,683.0,312.5,False,20.0,20.0,black,1.0,True,2.0,"20,-20",black,1366.0,625.0,,
29,,<h2 style='background: white;padding: 10px;'> <font color='green'>Correct! </font> </h2>,,html-keyboard-response,29,376779,0.0-15.3-1.3,,,,,,,,,,,,,,,,,,,,,,,,,,,,,,,,,,,,,,,,
30,1211.5600001998246,,80.0,RDK,30,377996,0.0-15.4-0.4,,True,"k,p",p,-1.0,True,2.0,100.0,1.0,"-90,-90","0,0.2",0.0,2.0,7.0,2.0,140.0,550.0,"black,white",gray,2.0,4.0,2.0,17.045214286606225,"[37.54499997012317,17.549999989569187,19.100000150501728,12.349999975413084,14.934999868273735,15.49500017426908,18.96000001579523,13.584999833256006,16.940000001341105,17.48500019311905,16.43499988131225,22.11000001989305,11.824999935925007,15.450000064447522,16.64999988861382,17.050000140443444,21.034999983385205,12.080000014975667,16.700000036507845,16.379999928176403,27.389999944716692,11.549999937415123,12.375000165775418,15.574999852105975,16.730000032112002,25.815000059083104,13.150000013411045,14.165000058710575,14.835000038146973,15.589999966323376,16.749999951571226,16.605000011622906,16.64000004529953,16.874999972060323,15.98499994724989,17.02499995008111,18.17500009201467,15.409999992698431,21.1449998896569,12.379999971017241,15.935000032186508,18.034999957308173,15.575000084936619,16.21500006876886,17.959999851882458,15.725000062957406,16.934999963268638,25.374999968335032,13.030000030994415,13.875000178813934,14.624999836087227,16.13500015810132,17.029999988153577,16.404999885708094,16.915000043809414,15.965000027790666,16.969999996945262,17.99000008031726,15.474999789148569,16.59000013023615,19.659999990835786,13.629999943077564,16.99999999254942,16.605000011622906,16.835000133141875,17.139999894425273,15.475000021979213,17.244999995455146,17.149999970570207,25.840000016614795]",70.0,683.0,312.5,False,20.0,20.0,black,1.0,True,2.0,"20,-20",black,1366.0,625.0,,
31,,<h2 style='background: white;padding: 10px;'> <font color='green'>Correct! </font> </h2>,,html-keyboard-response,31,378549,0.0-15.4-1.4,,,,,,,,,,,,,,,,,,,,,,,,,,,,,,,,,,,,,,,,
32,1598.679999820888,,75.0,RDK,32,380151,0.0-15.5-0.5,,False,"k,p",p,-1.0,True,2.0,100.0,1.0,"-90,-90","0,0.1",0.0,2.0,7.0,2.0,140.0,550.0,"black,white",gray,2.0,4.0,2.0,17.388241759573038,"[83.40000011958182,16.1549998447299,30.245000030845404,11.940000113099813,12.785000028088689,14.664999907836318,23.114999989047647,13.324999948963523,15.584999928250909,13.850000221282244,15.554999932646751,15.695000067353249,16.679999884217978,17.340000020340085,15.940000070258975,16.764999832957983,16.88000001013279,17.179999966174364,15.695000067353249,16.71999995596707,16.675000078976154,19.41499998793006,14.919999986886978,15.88999992236495,16.29500021226704,17.40999985486269,16.044999938458204,17.115000169724226,16.159999882802367,17.565000103786588,15.834999969229102,16.850000014528632,16.76000002771616,21.16500004194677,14.32999991811812,14.819999923929572,16.370000084862113,16.159999882802367,16.89500012435019,16.88999985344708,16.625000163912773,18.009999999776483,15.454999869689345,16.33500005118549,17.25500007160008,16.07499993406236,16.28000009804964,16.605000011622906,16.714999917894602,18.325000070035458,22.995000006631017,11.054999893531203,14.385000104084611,16.58499985933304,17.81500014476478,23.30499980598688,11.735000181943178,15.674999915063381,14.824999962002039,16.90499996766448,22.1649999730289,13.670000014826655,13.595000142231584,16.964999958872795,16.654999926686287,17.340000020340085,15.980000142008066,16.549999825656414,16.66500000283122,17.025000182911754,18.369999947026372,15.464999945834279,16.844999976456165,15.810000011697412,16.490000067278743,17.525000032037497,16.109999967738986,16.439999919384718,16.749999951571226,16.629999969154596,17.760000191628933,18.619999988004565,24.12499999627471,12.759999837726355,11.765000177547336,15.024999855086207,17.84500014036894,21.69499988667667,11.67499995790422,15.455000102519989,16.5200000628829]",91.0,683.0,312.5,False,20.0,20.0,black,1.0,True,2.0,"20,-20",black,1366.0,625.0,,
33,,<h2 style='background: white;padding: 10px;'> <font color='red'> Wrong. </font>  </h2>,,html-keyboard-response,33,380713,0.0-15.5-1.5,,,,,,,,,,,,,,,,,,,,,,,,,,,,,,,,,,,,,,,,
34,1958.5100000258533,,75.0,RDK,34,382675,0.0-15.6-0.6,,True,"k,p",k,-1.0,True,2.0,100.0,1.0,"90,90","0.05,0",0.0,2.0,7.0,2.0,140.0,550.0,"white,black",gray,2.0,4.0,2.0,16.689698274070714,"[25.304999900981784,13.160000089555979,14.029999962076545,16.814999980852008,15.450000064447522,16.684999922290444,15.859999926760793,16.54500002041459,17.900000093504786,16.43499988131225,16.57500001601875,15.924999956041574,16.99999999254942,16.770000103861094,17.075000097975135,22.154999896883965,12.610000092536211,14.60999995470047,16.74499991349876,16.814999980852008,23.264999967068434,11.735000181943178,16.189999878406525,15.194999985396862,17.690000124275684,22.929999977350235,11.369999963790178,14.669999945908785,16.485000029206276,17.045000102370977,24.31000000797212,13.464999850839376,14.265000121667981,16.76999987103045,14.69500013627112,16.724999994039536,16.029999824240804,16.54500002041459,16.740000108256936,16.73500007018447,18.59499979764223,15.390000073239207,18.470000009983778,13.990000123158097,17.134999856352806,17.764999996870756,15.430000144988298,18.764999927952886,14.86500003375113,16.244999831542373,17.395000206306577,25.184999918565154,11.979999952018261,13.414999935775995,16.5200000628829,19.21500009484589,18.290000036358833,14.199999859556556,15.050000045448542,16.42500003799796,17.994999885559082,17.115000169724226,15.679999953135848,15.954999951645732,20.044999895617366,13.21000000461936,16.320000169798732,16.934999963268638,20.809999899938703,12.155000120401382,16.28999994136393,17.035000026226044,26.934999972581863,12.069999938830733,11.984999990090728,14.88999999128282,16.795000061392784,22.68499997444451,12.044999981299043,15.499999979510903,16.670000040903687,16.44999999552965,36.19999997317791,10.815000161528587,9.80499992147088,11.969999875873327,14.780000085011125,17.105000093579292,16.940000001341105,16.12999988719821,16.90499996766448,16.365000046789646,16.580000054091215,16.910000005736947,17.02499995008111,18.050000071525574,14.644999988377094,16.564999939873815,18.44000001437962,15.334999887272716,19.370000110939145,13.479999965056777,16.585000092163682,17.405000049620867,16.115000005811453,16.924999887123704,16.254999907687306,16.57500001601875,16.610000049695373,26.49999991990626,12.360000051558018,12.379999971017241,15.800000168383121,16.83499990031123,22.984999930486083,12.044999981299043]",116.0,683.0,312.5,False,20.0,20.0,black,1.0,True,2.0,"20,-20",black,1366.0,625.0,,
35,,<h2 style='background: white;padding: 10px;'> <font color='green'>Correct! </font> </h2>,,html-keyboard-response,35,383228,0.0-15.6-1.6,,,,,,,,,,,,,,,,,,,,,,,,,,,,,,,,,,,,,,,,
36,1150.0349999405444,,80.0,RDK,36,384381,0.0-15.7-0.7,,True,"k,p",p,-1.0,True,2.0,100.0,1.0,"-90,-90","0,0.1",0.0,2.0,7.0,2.0,140.0,550.0,"black,white",gray,2.0,4.0,2.0,16.997985076159242,"[29.34500016272068,16.644999850541353,26.32499998435378,16.165000153705478,16.419999999925494,18.15999997779727,22.329999832436442,11.494999984279275,14.645000221207738,16.390000004321337,18.154999939724803,23.594999918714166,11.17000007070601,13.975000008940697,17.629999900236726,16.250000102445483,23.825000040233135,12.154999887570739,13.180000009015203,16.955000115558505,16.484999796375632,17.345000058412552,16.694999998435378,16.555000096559525,16.799999866634607,16.234999988228083,18.009999999776483,15.395000111311674,16.924999887123704,16.019999980926514,16.92000008188188,17.0800001360476,16.95499988272786,22.735000122338533,11.609999928623438,16.55499986372888,14.830000000074506,27.39499998278916,11.93000003695488,11.995000066235662,15.390000073239207,16.754999989643693,22.56499999202788,15.544999856501818,12.21000007353723,16.42500003799796,16.659999964758754,17.604999942705035,15.765000134706497,17.07499986514449,16.180000035092235,16.500000143423676,17.47499988414347,16.620000125840306,18.11999990604818,14.914999948814511,17.61500001884997,15.279999934136868,16.950000077486038,18.545000115409493,23.739999858662486,13.509999960660934,12.875000014901161,15.850000083446503,15.429999912157655,16.625000163912773,17.35999993979931]",67.0,683.0,312.5,False,20.0,20.0,black,1.0,True,2.0,"20,-20",black,1366.0,625.0,,
37,,<h2 style='background: white;padding: 10px;'> <font color='green'>Correct! </font> </h2>,,html-keyboard-response,37,384934,0.0-15.7-1.7,,,,,,,,,,,,,,,,,,,,,,,,,,,,,,,,,,,,,,,,
38,1173.6200000159442,,80.0,RDK,38,386115,0.0-15.8-0.8,,True,"k,p",p,-1.0,True,2.0,100.0,1.0,"-90,-90","0,0.2",0.0,2.0,7.0,2.0,140.0,550.0,"black,white",gray,2.0,4.0,2.0,16.831176468472492,"[35.99000000394881,15.694999834522605,21.695000119507313,10.869999881833792,15.524999937042594,12.980000115931034,16.159999882802367,16.980000073090196,14.635000145062804,17.939999932423234,19.91999987512827,14.005000004544854,16.490000067278743,15.270000090822577,17.229999881237745,16.229999950155616,17.145000165328383,16.969999996945262,15.614999923855066,16.675000078976154,17.179999966174364,17.100000055506825,16.539999982342124,15.604999847710133,17.165000084787607,18.034999957308173,15.765000134706497,19.564999965950847,12.755000032484531,16.679999884217978,18.025000113993883,15.949999913573265,18.2950000744313,14.59499984048307,16.76000002771616,16.47000014781952,26.37999993748963,11.814999859780073,12.82500009983778,16.34499989449978,16.910000005736947,16.265000216662884,16.940000001341105,16.654999926686287,15.86499996483326,17.019999912008643,16.850000014528632,16.810000175610185,17.254999838769436,15.840000007301569,16.300000017508864,17.325000138953328,16.589999897405505,16.88000001013279,16.724999994039536,15.965000027790666,16.804999904707074,16.76000002771616,16.37500012293458,16.56999997794628,18.54499988257885,15.330000082030892,17.740000039339066,23.249999852851033,11.550000170245767,13.324999948963523,16.8550000526011,17.349999863654375]",68.0,683.0,312.5,False,20.0,20.0,black,1.0,True,2.0,"20,-20",black,1366.0,625.0,,
39,,<h2 style='background: white;padding: 10px;'> <font color='green'>Correct! </font> </h2>,,html-keyboard-response,39,386667,0.0-15.8-1.8,,,,,,,,,,,,,,,,,,,,,,,,,,,,,,,,,,,,,,,,
40,876.8050000071526,,75.0,RDK,40,387546,0.0-15.9-0.9,,True,"k,p",k,-1.0,True,2.0,100.0,1.0,"90,90","0.05,0",0.0,2.0,7.0,2.0,140.0,550.0,"white,black",gray,2.0,4.0,2.0,16.69028845991796,"[25.82999994046986,13.59499990940094,18.2799999602139,23.59500015154481,10.119999991729856,11.840000050142407,15.909999841824174,27.140000136569142,11.319999815896153,10.240000206977129,16.679999884217978,16.940000001341105,17.719999887049198,20.865000085905194,11.110000079497695,16.564999939873815,16.82500005699694,17.109999898821115,16.435000114142895,16.27499982714653,16.840000171214342,16.754999989643693,16.994999954476953,16.83499990031123,16.1850000731647,16.534999944269657,16.844999976456165,16.850000014528632,17.56000006571412,15.550000127404928,16.759999794885516,16.365000046789646,16.930000158026814,17.109999898821115,17.454999964684248,15.810000011697412,16.315000131726265,16.404999885708094,17.195000080391765,16.669999808073044,16.17500022985041,16.76999987103045,17.20000011846423,16.214999835938215,18.404999980702996,15.134999994188547,16.73500007018447,16.035000095143914,16.804999904707074,17.77500007301569,15.870000002905726,16.414999961853027]",52.0,683.0,312.5,False,20.0,20.0,black,1.0,True,2.0,"20,-20",black,1366.0,625.0,,
41,,<h2 style='background: white;padding: 10px;'> <font color='green'>Correct! </font> </h2>,,html-keyboard-response,41,388099,0.0-15.9-1.9,,,,,,,,,,,,,,,,,,,,,,,,,,,,,,,,,,,,,,,,
42,1231.0000001452865,,80.0,RDK,42,389333,0.0-15.10-0.10,,False,"k,p",k,-1.0,True,2.0,100.0,1.0,"90,90","0.1,0",0.0,2.0,7.0,2.0,140.0,550.0,"white,black",gray,2.0,4.0,2.0,17.125774647148564,"[34.90499989129603,17.35999993979931,20.315000088885427,10.01000008545816,16.594999935477972,18.099999986588955,15.36000007763505,16.469999914988875,16.765000065788627,16.764999832957983,18.05500010959804,15.425000106915832,16.174999997019768,17.19499984756112,16.515000024810433,16.97500003501773,17.370000015944242,16.1699999589473,15.72000002488494,16.850000014528632,16.95499988272786,16.66500000283122,16.460000071674585,16.585000092163682,16.66500000283122,16.714999917894602,18.34499998949468,16.670000040903687,15.159999951720238,16.635000007227063,16.74499991349876,16.745000146329403,16.670000040903687,16.164999920874834,16.73500007018447,17.364999977871776,15.995000023394823,16.71999995596707,16.73500007018447,16.99999999254942,16.469999914988875,16.509999986737967,22.769999923184514,13.269999995827675,14.029999962076545,16.670000040903687,16.515000024810433,17.410000087693334,16.86499989591539,15.980000142008066,16.919999849051237,16.38499996624887,16.635000007227063,21.810000063851476,11.595000047236681,16.515000024810433,16.814999980852008,16.390000004321337,47.86500008776784,9.419999783858657,10.6650001835078,15.690000029280782,17.549999989569187,19.269999815151095,12.890000129118562,16.494999872520566,17.28000002913177,16.94500003941357,16.56000013463199,16.119999811053276,16.80000009946525]",71.0,683.0,312.5,False,20.0,20.0,black,1.0,True,2.0,"20,-20",black,1366.0,625.0,,
43,,<h2 style='background: white;padding: 10px;'> <font color='red'> Wrong. </font>  </h2>,,html-keyboard-response,43,389886,0.0-15.10-1.10,,,,,,,,,,,,,,,,,,,,,,,,,,,,,,,,,,,,,,,,
44,1455.864999908954,,80.0,RDK,44,391345,0.0-15.11-0.11,,True,"k,p",p,-1.0,True,2.0,100.0,1.0,"-90,-90","0,0.4",0.0,2.0,7.0,2.0,140.0,550.0,"black,white",gray,2.0,4.0,2.0,16.795523253507742,"[33.29499997198582,11.909999884665012,21.010000025853515,10.51499997265637,10.389999952167273,12.580000096932054,17.579999985173345,18.385000061243773,12.0599998626858,16.310000093653798,16.940000001341105,16.820000018924475,15.949999913573265,16.66500000283122,16.71999995596707,16.910000005736947,17.48500019311905,17.96999992802739,18.235000083222985,13.029999798163772,16.71000011265278,25.690000038594007,14.60999995470047,14.190000016242266,14.48999997228384,15.124999918043613,16.73500007018447,16.56999997794628,16.80999994277954,15.875000040978193,16.395000042393804,16.534999944269657,17.70500000566244,16.910000005736947,17.29500014334917,15.140000032261014,18.924999982118607,14.87499987706542,20.89500008150935,28.590000001713634,10.400000028312206,11.739999987185001,13.804999878630042,15.115000074729323,23.090000031515956,13.264999957755208,14.375000027939677,14.309999998658895,19.05500004068017,15.780000016093254,16.349999932572246,15.570000046864152,18.08999991044402,16.539999982342124,16.349999932572246,17.170000122860074,16.09500008635223,16.469999914988875,16.66500000283122,17.174999928101897,16.61500008776784,20.449999952688813,12.709999922662973,17.27000018581748,16.214999835938215,16.730000032112002,18.649999983608723,15.825000125914812,14.459999976679683,17.675000010058284,21.244999952614307,12.494999915361404,15.125000150874257,16.614999854937196,17.42499996908009,24.10000003874302,11.285000015050173,13.835000107064843,16.79499982856214,17.545000184327364,25.09999996982515,12.009999947622418,12.504999991506338,16.07999997213483,16.99000014923513,30.424999771639705]",86.0,683.0,312.5,False,20.0,20.0,black,1.0,True,2.0,"20,-20",black,1366.0,625.0,,
45,,<h2 style='background: white;padding: 10px;'> <font color='green'>Correct! </font> </h2>,,html-keyboard-response,45,391902,0.0-15.11-1.11,,,,,,,,,,,,,,,,,,,,,,,,,,,,,,,,,,,,,,,,
46,1177.5899999774992,,80.0,RDK,46,393082,0.0-15.12-0.12,,True,"k,p",p,-1.0,True,2.0,100.0,1.0,"-90,-90","0,0.4",0.0,2.0,7.0,2.0,140.0,550.0,"black,white",gray,2.0,4.0,2.0,17.163823529913582,"[29.66500003822148,17.7350000012666,17.84999994561076,41.064999997615814,12.92999996803701,15.665000071749091,15.254999976605177,26.294999988749623,14.124999986961484,12.57000002078712,13.680000090971589,17.454999964684248,30.384999932721257,14.794999966397882,20.840000128373504,13.555000070482492,20.97499999217689,12.265000026673079,10.41999994777143,11.960000032559037,14.60999995470047,18.274999922141433,15.030000125989318,16.379999928176403,16.605000011622906,16.779999947175384,16.620000125840306,16.45999983884394,16.99999999254942,16.525000100955367,16.989999916404486,16.405000118538737,16.83499990031123,16.610000049695373,16.509999986737967,17.010000068694353,16.404999885708094,16.474999953061342,16.94500003941357,16.5200000628829,16.610000049695373,16.644999850541353,16.44999999552965,16.865000128746033,17.08999997936189,16.485000029206276,16.229999950155616,18.459999933838844,15.325000043958426,19.420000026002526,14.260000083595514,15.88999992236495,17.719999887049198,25.31500020995736,12.919999891892076,12.480000033974648,15.085000079125166,18.54499988257885,16.915000043809414,15.179999871179461,16.365000046789646,20.754999946802855,13.290000148117542,17.220000037923455,14.84999991953373,16.659999964758754,16.770000103861094,16.86499989591539]",68.0,683.0,312.5,False,20.0,20.0,black,1.0,True,2.0,"20,-20",black,1366.0,625.0,,
47,,<h2 style='background: white;padding: 10px;'> <font color='green'>Correct! </font> </h2>,,html-keyboard-response,47,393638,0.0-15.12-1.12,,,,,,,,,,,,,,,,,,,,,,,,,,,,,,,,,,,,,,,,
48,827.0849999971688,,75.0,RDK,48,394468,0.0-15.13-0.13,,False,"k,p",p,-1.0,True,2.0,100.0,1.0,"-90,-90","0,0.1",0.0,2.0,7.0,2.0,140.0,550.0,"black,white",gray,2.0,4.0,2.0,17.329893614898655,"[36.180000053718686,18.564999802038074,18.905000062659383,28.140000067651272,15.269999857991934,15.910000074654818,15.660000033676624,19.395000068470836,14.664999907836318,15.189999947324395,16.82500005699694,17.500000074505806,17.83499983139336,18.615000182762742,13.829999836161733,15.955000184476376,30.455000000074506,12.374999932944775,12.679999927058816,13.520000036805868,22.979999892413616,19.78000020608306,16.46499987691641,11.300000129267573,15.23499982431531,14.08000010997057,16.73500007018447,14.639999950304627,15.845000045374036,16.644999850541353,16.779999947175384,17.020000144839287,16.085000010207295,17.0650000218302,15.989999985322356,21.544999908655882,16.83000009506941,21.59000001847744,17.234999919310212,15.055000083521008,14.479999896138906,13.294999953359365,14.58499999716878,15.455000102519989,16.779999947175384,16.474999953061342,17.0650000218302]",47.0,683.0,312.5,False,20.0,20.0,black,1.0,True,2.0,"20,-20",black,1366.0,625.0,,
49,,<h2 style='background: white;padding: 10px;'> <font color='red'> Wrong. </font>  </h2>,,html-keyboard-response,49,395023,0.0-15.13-1.13,,,,,,,,,,,,,,,,,,,,,,,,,,,,,,,,,,,,,,,,
50,2739.645000081509,,80.0,RDK,50,397765,0.0-15.14-0.14,,True,"k,p",p,-1.0,True,2.0,100.0,1.0,"-90,-90","0,0.1",0.0,2.0,7.0,2.0,140.0,550.0,"black,white",gray,2.0,4.0,2.0,16.847685184962128,"[28.949999948963523,16.330000013113022,11.345000006258488,26.65000013075769,13.084999984130263,17.044999869540334,16.16000011563301,21.25500002875924,15.304999891668558,13.049999950453639,17.05500017851591,16.390000004321337,16.374999890103936,18.995000049471855,14.779999852180481,18.555000191554427,25.075000012293458,12.994999997317791,12.329999823123217,14.300000155344605,21.28999982960522,14.010000042617321,15.254999976605177,16.30500005558133,18.309999955818057,15.845000045374036,14.184999978169799,18.020000075921416,18.11999990604818,20.4050000756979,13.61000002361834,16.069999895989895,16.07999997213483,19.07999999821186,13.930000131949782,16.804999904707074,16.19999995455146,26.685000164434314,12.534999987110496,13.434999855235219,14.850000152364373,23.50999996997416,13.760000001639128,15.025000087916851,14.399999985471368,16.254999907687306,17.884999979287386,17.980000004172325,14.22500004991889,23.93499994650483,13.365000020712614,16.00000006146729,15.91499987989664,14.635000145062804,18.709999974817038,14.629999874159694,15.780000016093254,17.625000094994903,20.284999860450625,12.915000086650252,16.115000005811453,15.894999960437417,18.75000004656613,15.055000083521008,16.349999932572246,17.28999987244606,16.515000024810433,15.940000070258975,17.78499991632998,15.945000108331442,16.989999916404486,16.324999975040555,16.174999997019768,18.34499998949468,17.395000206306577,22.029999876394868,12.319999979808927,13.8499999884516,16.71000011265278,27.959999861195683,11.100000003352761,12.770000146701932,14.459999976679683,16.8399999383837,16.865000128746033,16.71999995596707,16.97500003501773,16.004999866709113,16.485000029206276,18.794999923557043,15.330000082030892,16.395000042393804,17.334999982267618,15.459999907761812,17.720000119879842,16.330000013113022,21.274999948218465,12.85999990068376,15.185000142082572,16.924999887123704,25.70999995805323,12.155000120401382,13.215000042691827,15.284999972209334,17.16999989002943,16.90499996766448,16.780000180006027,17.20999996177852,15.304999891668558,16.629999969154596,18.290000036358833,16.715000150725245,15.799999935552478,16.339999856427312,17.755000153556466,15.899999998509884,16.349999932572246,16.88000001013279,18.63999990746379,14.45500017143786,16.524999868124723,17.23000011406839,18.350000027567148,19.884999841451645,13.370000058785081,14.190000016242266,17.579999985173345,16.610000049695373,16.395000042393804,16.45999983884394,18.090000143274665,15.794999897480011,15.800000168383121,18.18499993532896,15.36999992094934,18.39000009931624,16.859999857842922,15.26500005275011,19.27000004798174,32.03999996185303,14.710000017657876,18.004999961704016,15.875000040978193,24.1650000680238,11.709999991580844,13.529999880120158,17.860000021755695,23.20499997586012,11.900000041350722,13.634999981150031,16.405000118538737,17.234999919310212,24.874999886378646,12.775000184774399,14.689999865368009,13.740000082179904,16.934999963268638,17.419999931007624,17.435000045225024,16.030000057071447,15.559999970719218,17.02499995008111]",162.0,683.0,312.5,False,20.0,20.0,black,1.0,True,2.0,"20,-20",black,1366.0,625.0,,
51,,<h2 style='background: white;padding: 10px;'> <font color='green'>Correct! </font> </h2>,,html-keyboard-response,51,398327,0.0-15.14-1.14,,,,,,,,,,,,,,,,,,,,,,,,,,,,,,,,,,,,,,,,
52,1818.0400000419468,,80.0,RDK,52,400148,0.0-15.15-0.15,,True,"k,p",p,-1.0,True,2.0,100.0,1.0,"-90,-90","0,0.1",0.0,2.0,7.0,2.0,140.0,550.0,"black,white",gray,2.0,4.0,2.0,16.8639252323518,"[28.38000003248453,12.654999969527125,15.6099998857826,16.09500008635223,16.085000010207295,46.42999987117946,10.745000094175339,15.90500003658235,13.23499996215105,21.61499997600913,11.764999944716692,13.380000134930015,17.26499991491437,22.690000012516975,11.924999998882413,14.949999982491136,15.750000020489097,17.50499987974763,24.865000043064356,12.640000088140368,12.270000064745545,16.86499989591539,17.699999967589974,15.52000013180077,16.749999951571226,15.899999998509884,16.86499989591539,16.820000018924475,18.240000121295452,15.614999923855066,16.354999970644712,16.99000014923513,16.31499989889562,17.629999900236726,16.41500019468367,19.454999826848507,12.92999996803701,16.44000015221536,16.979999840259552,17.115000169724226,16.12000004388392,16.484999796375632,16.795000061392784,16.605000011622906,18.36500014178455,25.249999947845936,11.689999839290977,12.400000123307109,15.764999901875854,17.785000149160624,24.019999895244837,11.984999990090728,12.525000143796206,16.754999989643693,24.01499985717237,16.109999967738986,13.010000111535192,15.059999888762832,16.57500001601875,17.49500003643334,15.170000027865171,16.635000007227063,15.970000065863132,16.754999989643693,16.644999850541353,18.53500003926456,15.595000004395843,18.500000005587935,13.830000068992376,16.739999875426292,18.090000143274665,16.339999856427312,17.875000135973096,14.454999938607216,16.82500005699694,17.16000004671514,16.589999897405505,22.215000120922923,14.005000004544854,13.47499992698431,16.82500005699694,20.305000012740493,14.349999837577343,15.85500012151897,15.849999850615859,17.29500014334917,15.935000032186508,16.829999862238765,16.465000109747052,16.829999862238765,16.659999964758754,17.61500001884997,16.345000127330422,16.430000076070428,16.789999790489674,16.225000144913793,16.910000005736947,16.5200000628829,17.374999821186066,15.945000108331442,16.469999914988875,16.700000036507845,17.364999977871776,17.509999917820096,16.61500008776784,15.170000027865171,16.379999928176403]",107.0,683.0,312.5,False,20.0,20.0,black,1.0,True,2.0,"20,-20",black,1366.0,625.0,,
53,,<h2 style='background: white;padding: 10px;'> <font color='green'>Correct! </font> </h2>,,html-keyboard-response,53,400711,0.0-15.15-1.15,,,,,,,,,,,,,,,,,,,,,,,,,,,,,,,,,,,,,,,,
54,1202.0849999971688,,75.0,RDK,54,401916,0.0-15.16-0.16,,True,"k,p",k,-1.0,True,2.0,100.0,1.0,"90,90","0.2,0",0.0,2.0,7.0,2.0,140.0,550.0,"white,black",gray,2.0,4.0,2.0,16.539513890165836,"[24.56500008702278,10.109999915584922,14.730000169947743,12.749999994412065,15.059999888762832,14.970000134781003,16.149999806657434,19.195000175386667,13.614999828860164,18.540000077337027,15.304999891668558,17.855000216513872,14.58499999716878,17.21999980509281,17.84500014036894,15.630000038072467,20.354999927803874,12.439999962225556,16.700000036507845,17.47499988414347,16.320000169798732,21.500000031664968,12.249999912455678,15.989999985322356,16.324999975040555,21.304999943822622,19.775000168010592,12.73999991826713,13.599999947473407,15.940000070258975,17.964999889954925,15.565000008791685,16.77500014193356,16.319999936968088,16.950000077486038,17.220000037923455,17.0349997933954,15.959999989718199,17.220000037923455,15.665000071749091,17.174999928101897,16.13500015810132,17.950000008568168,21.03999978862703,12.025000061839819,15.725000062957406,18.649999983608723,15.595000004395843,17.49500003643334,14.930000063031912,16.635000007227063,18.39999994263053,20.569999935105443,13.885000022128224,14.405000023543835,15.854999888688326,17.565000103786588,19.91999987512827,14.58499999716878,15.49500017426908,15.849999850615859,16.940000001341105,17.570000141859055,15.90500003658235,16.894999891519547,16.44999999552965,16.254999907687306,18.19000020623207,15.774999978020787,19.289999967440963,13.349999906495214,16.82500005699694]",72.0,683.0,312.5,False,20.0,20.0,black,1.0,True,2.0,"20,-20",black,1366.0,625.0,,
55,,<h2 style='background: white;padding: 10px;'> <font color='green'>Correct! </font> </h2>,,html-keyboard-response,55,402479,0.0-15.16-1.16,,,,,,,,,,,,,,,,,,,,,,,,,,,,,,,,,,,,,,,,
56,,,,pavlovia,56,402497,0.0-16.0,,,,,,,,,,,,,,,,,,,,,,,,,,,,,,,,,,,,,,,,
57,,"<p>Wait while your data is being saved.</p> <p><b>Don't press any button, please.</b></p> <br/><img src='https://media.tenor.com/images/d6cd5151c04765d1992edfde14483068/tenor.gif' width='50' height='50'>",,html-keyboard-response,57,405499,0.0-17.0,,,,,,,,,,,,,,,,,,,,,,,,,,,,,,,,,,,,,,,,
58,,,,pavlovia,58,405503,0.0-18.0,,,,,,,,,,,,,,,,,,,,,,,,,,,,,,,,,,,,,,,,
59,9660.0,"<div style='background: #d3d3d3;padding: 20px;'><p>Great! You are ready to start <b>PART 1</b>.</p><p>There is time limit of <b>4 seconds</b> per trial. If you exceed this time, your answer is considered wrong.</p><p>Remember to watch only WHITE dots.</p> <br/><p><i>Please note that your responses in this part will be checked by an automated script. If the accuracy of your response does not reach a pre-defined level, we could not continue the rest of the experiment, and you will be redirected to Prolific website.</i></p><br/> Press <b>SPACE</b> to continue.</div>",32.0,html-keyboard-response,59,415165,0.0-19.0,,,,,,,,,,,,,,,,,,,,,,,,,,,,,,,,,,,,,,,,
60,,<font color='grey'>coh1</font>,,html-keyboard-response,60,415668,0.0-20.0-0.0,,,,,,,,,,,,,,,,,,,,,,,,,,,,,,,,,,,,,,,,
61,,"<div style=""font-size:60px;"">+</div>",,html-keyboard-response,61,415920,0.0-20.0-1.0,,,,,,,,,,,,,,,,,,,,,,,,,,,,,,,,,,,,,,,,
62,2306.8299998994917,,75.0,RDK,62,418229,0.0-20.0-2.0,,True,"k,p",k,4000.0,True,2.0,100.0,1.0,"90,90","0,0.31622776601683794",0.0,2.0,7.0,2.0,140.0,550.0,"black,white",gray,2.0,4.0,2.0,16.746021897266928,"[35.12999997474253,13.24499980546534,17.81500014476478,11.734999949112535,16.605000011622906,16.33500005118549,18.050000071525574,15.709999948740005,16.36999985203147,16.625000163912773,16.91499981097877,17.865000059828162,15.460000140592456,17.14499993249774,16.319999936968088,16.670000040903687,17.16999989002943,16.285000136122108,16.12999988719821,16.840000171214342,16.98499987833202,16.97500003501773,17.794999992474914,15.205000061541796,16.259999945759773,17.56999990902841,16.395000042393804,17.08999997936189,15.670000109821558,16.469999914988875,16.530000139027834,17.32999994419515,16.795000061392784,16.304999822750688,16.66500000283122,16.810000175610185,16.614999854937196,16.874999972060323,16.500000143423676,16.709999879822135,16.940000001341105,16.07000012882054,16.994999954476953,17.340000020340085,17.47499988414347,14.630000106990337,16.859999857842922,16.885000048205256,17.11999997496605,16.88000001013279,16.515000024810433,16.00000006146729,16.94500003941357,16.774999909102917,22.080000024288893,10.985000059008598,16.704999841749668,16.635000007227063,16.835000133141875,17.054999945685267,21.269999910145998,11.210000142455101,17.035000026226044,16.189999878406525,17.02499995008111,16.840000171214342,16.254999907687306,16.779999947175384,16.915000043809414,16.994999954476953,16.294999979436398,16.390000004321337,16.995000187307596,16.644999850541353,16.724999994039536,16.810000175610185,16.414999961853027,16.854999819770455,16.310000093653798,16.874999972060323,17.420000163838267,16.44999999552965,16.234999988228083,16.269999789074063,16.94500003941357,17.285000067204237,16.19499991647899,16.340000089257956,16.404999885708094,16.740000108256936,16.850000014528632,17.68999989144504,15.409999992698431,16.720000188797712,17.10499986074865,17.165000084787607,17.220000037923455,15.6099998857826,16.515000024810433,16.740000108256936,17.044999869540334,17.235000152140856,15.799999935552478,16.940000001341105,17.75999995879829,14.925000024959445,17.609999980777502,17.354999901726842,15.14500007033348,16.68999996036291,16.88000001013279,16.564999939873815,23.6049999948591,10.445000138133764,15.794999897480011,16.92000008188188,16.83499990031123,17.36500021070242,19.299999810755253,12.695000041276217,16.650000121444464,17.18500000424683,16.80999994277954,16.494999872520566,16.30500005558133,16.580000054091215,16.92999992519617,16.960000153630972,16.40999992378056,16.390000004321337,16.589999897405505,16.71000011265278,16.82500005699694,20.989999873563647,13.169999932870269,16.42500003799796,16.035000095143914]",137.0,683.0,312.5,False,20.0,20.0,black,1.0,True,2.0,"20,-20",black,1366.0,625.0,,
63,,<h2 style='background: white;padding: 10px;'> <font color='green'>Correct! </font> </h2>,,html-keyboard-response,63,418795,0.0-20.0-3.0,,,,,,,,,,,,,,,,,,,,,,,,,,,,,,,,,,,,,,,,
64,,<font color='grey'>coh2</font>,,html-keyboard-response,64,419206,0.0-20.1-0.1,,,,,,,,,,,,,,,,,,,,,,,,,,,,,,,,,,,,,,,,
65,,"<div style=""font-size:60px;"">+</div>",,html-keyboard-response,65,419458,0.0-20.1-1.1,,,,,,,,,,,,,,,,,,,,,,,,,,,,,,,,,,,,,,,,
66,1111.7249999661,,80.0,RDK,66,420572,0.0-20.1-2.1,,True,"k,p",p,4000.0,True,2.0,100.0,1.0,"-90,-90","0.31622776601683794,0",0.0,2.0,7.0,2.0,140.0,550.0,"white,black",gray,2.0,4.0,2.0,16.56143939489442,"[28.055000118911266,13.179999776184559,8.825000142678618,11.870000045746565,18.79999996162951,11.429999954998493,16.71000011265278,17.419999931007624,15.840000007301569,17.439999850466847,15.90500003658235,16.790000023320317,17.0800001360476,16.10499992966652,16.8550000526011,17.254999838769436,16.835000133141875,17.04000006429851,16.204999992623925,16.184999840334058,16.82500005699694,16.61500008776784,17.419999931007624,16.284999903291464,15.684999991208315,16.940000001341105,17.0650000218302,16.64000004529953,23.994999937713146,9.425000054761767,16.07499993406236,16.980000073090196,17.16000004671514,16.499999910593033,17.11000013165176,15.619999961927533,16.844999976456165,16.8550000526011,17.334999982267618,16.43499988131225,16.320000169798732,16.88999985344708,16.25500014051795,16.934999963268638,16.58499985933304,16.56000013463199,16.739999875426292,16.969999996945262,16.270000021904707,17.035000026226044,16.1699999589473,16.555000096559525,17.14499993249774,16.47000014781952,21.629999857395887,12.915000086650252,15.24999993853271,16.650000121444464,16.414999961853027,17.764999996870756,21.09499997459352,12.270000064745545,15.544999856501818,16.71999995596707,16.969999996945262,17.29500014334917]",66.0,683.0,312.5,False,20.0,20.0,black,1.0,True,2.0,"20,-20",black,1366.0,625.0,,
67,,<h2 style='background: white;padding: 10px;'> <font color='green'>Correct! </font> </h2>,,html-keyboard-response,67,421125,0.0-20.1-3.1,,,,,,,,,,,,,,,,,,,,,,,,,,,,,,,,,,,,,,,,
68,,<font color='grey'>coh1</font>,,html-keyboard-response,68,421729,0.0-20.2-0.2,,,,,,,,,,,,,,,,,,,,,,,,,,,,,,,,,,,,,,,,
69,,"<div style=""font-size:60px;"">+</div>",,html-keyboard-response,69,421982,0.0-20.2-1.2,,,,,,,,,,,,,,,,,,,,,,,,,,,,,,,,,,,,,,,,
70,1295.444999821484,,75.0,RDK,70,423279,0.0-20.2-2.2,,True,"k,p",k,4000.0,True,2.0,100.0,1.0,"90,90","0,0.31622776601683794",0.0,2.0,7.0,2.0,140.0,550.0,"black,white",gray,2.0,4.0,2.0,16.71876623476674,"[27.43500005453825,11.239999905228615,14.390000142157078,16.21500006876886,17.079999903216958,15.954999951645732,16.890000086277723,16.694999998435378,16.869999933987856,16.474999953061342,16.285000136122108,17.149999970570207,16.645000083371997,17.189999809488654,16.055000014603138,16.275000059977174,16.724999994039536,16.985000111162663,16.84999978169799,17.0800001360476,15.540000051259995,16.88000001013279,16.8399999383837,17.02499995008111,17.315000062808394,15.845000045374036,16.68999996036291,16.085000010207295,17.04000006429851,17.45999976992607,17.03000022098422,15.524999937042594,17.139999894425273,16.245000064373016,17.405000049620867,15.949999913573265,16.56000013463199,16.95499988272786,16.270000021904707,17.029999988153577,16.795000061392784,16.19999995455146,16.770000103861094,16.604999778792262,16.955000115558505,17.410000087693334,15.34499996341765,17.37500005401671,16.559999901801348,16.539999982342124,19.145000027492642,16.174999997019768,14.84000007621944,16.474999953061342,16.700000036507845,16.309999860823154,16.950000077486038,16.404999885708094,16.47999999113381,17.005000030621886,16.45500003360212,18.124999944120646,16.490000067278743,15.76999993994832,16.13500015810132,16.854999819770455,21.39500016346574,12.564999982714653,16.1549998447299,16.740000108256936,16.349999932572246,17.394999973475933,17.600000137463212,16.254999907687306,16.715000150725245,16.1549998447299,17.835000064224005]",77.0,683.0,312.5,False,20.0,20.0,black,1.0,True,2.0,"20,-20",black,1366.0,625.0,,
71,,<h2 style='background: white;padding: 10px;'> <font color='green'>Correct! </font> </h2>,,html-keyboard-response,71,423834,0.0-20.2-3.2,,,,,,,,,,,,,,,,,,,,,,,,,,,,,,,,,,,,,,,,
72,,<font color='grey'>coh2</font>,,html-keyboard-response,72,424338,0.0-20.3-0.3,,,,,,,,,,,,,,,,,,,,,,,,,,,,,,,,,,,,,,,,
73,,"<div style=""font-size:60px;"">+</div>",,html-keyboard-response,73,424590,0.0-20.3-1.3,,,,,,,,,,,,,,,,,,,,,,,,,,,,,,,,,,,,,,,,
74,1158.0900000408294,,80.0,RDK,74,425752,0.0-20.3-2.3,,False,"k,p",k,4000.0,True,2.0,100.0,1.0,"90,90","0,0.31622776601683794",0.0,2.0,7.0,2.0,140.0,550.0,"black,white",gray,2.0,4.0,2.0,17.287045456186842,"[43.079999973997474,16.835000133141875,23.574999999254942,14.334999956190586,16.19499991647899,13.950000051409006,24.974999949336052,10.26500016450882,12.295000022277236,16.399999847635627,25.120000122115016,12.404999928548932,15.425000106915832,14.044999843463302,15.49500017426908,17.584999790415168,16.060000052675605,16.250000102445483,17.044999869540334,16.44000015221536,17.814999911934137,16.234999988228083,16.73500007018447,15.819999855011702,16.88000001013279,16.690000193193555,17.799999797716737,47.900000121444464,10.465000057592988,12.774999951943755,14.260000083595514,23.42499978840351,11.770000215619802,12.614999897778034,15.90500003658235,17.44999992661178,23.00500008277595,11.29000005312264,14.404999790713191,16.625000163912773,23.18999986164272,14.205000130459666,14.424999943003058,15.76000009663403,15.870000002905726,16.989999916404486,16.539999982342124,16.559999901801348,16.485000029206276,16.770000103861094,16.88000001013279,18.10500002466142,15.999999828636646,17.180000199005008,15.069999964907765,17.340000020340085,17.319999868050218,16.06500009074807,17.549999989569187,16.1850000731647,15.565000008791685,17.399999778717756,26.045000180602074,11.53999986127019,11.870000045746565,16.395000042393804]",66.0,683.0,312.5,False,20.0,20.0,black,1.0,True,2.0,"20,-20",black,1366.0,625.0,,
75,,<h2 style='background: white;padding: 10px;'> <font color='red'> Wrong. </font>  </h2>,,html-keyboard-response,75,426311,0.0-20.3-3.3,,,,,,,,,,,,,,,,,,,,,,,,,,,,,,,,,,,,,,,,
76,,<font color='grey'>coh1</font>,,html-keyboard-response,76,426822,0.0-20.4-0.4,,,,,,,,,,,,,,,,,,,,,,,,,,,,,,,,,,,,,,,,
77,,"<div style=""font-size:60px;"">+</div>",,html-keyboard-response,77,427075,0.0-20.4-1.4,,,,,,,,,,,,,,,,,,,,,,,,,,,,,,,,,,,,,,,,
78,1153.7900001276284,,75.0,RDK,78,428231,0.0-20.4-2.4,,True,"k,p",k,4000.0,True,2.0,100.0,1.0,"90,90","0,0.19952623149688797",0.0,2.0,7.0,2.0,140.0,550.0,"black,white",gray,2.0,4.0,2.0,16.842573528479345,"[38.94000011496246,12.764999875798821,14.965000096708536,17.070000059902668,12.684999965131283,14.074999839067459,16.59000013023615,22.499999962747097,14.525000005960464,13.139999937266111,18.25500000268221,15.365000115707517,22.04499999061227,11.91499992273748,13.900000136345625,17.07499986514449,20.530000096186996,12.949999887496233,16.07499993406236,16.63000020198524,17.50499987974763,19.755000015720725,14.60999995470047,15.494999941438437,16.20500022545457,16.34499989449978,18.355000065639615,16.02500001899898,16.34499989449978,16.294999979436398,16.474999953061342,17.930000089108944,15.98499994724989,17.02499995008111,19.340000115334988,14.810000080615282,15.544999856501818,16.555000096559525,22.009999956935644,11.949999956414104,15.330000082030892,16.844999976456165,20.179999992251396,12.799999909475446,18.045000033453107,15.550000127404928,16.734999837353826,27.470000088214874,12.404999928548932,11.55499997548759,15.340000158175826,16.494999872520566,17.49500003643334,16.465000109747052,16.594999935477972,16.73500007018447,16.374999890103936,16.850000014528632,16.1699999589473,16.555000096559525,18.15999997779727,15.244999900460243,16.94500003941357,17.909999936819077,16.090000048279762,26.480000000447035,11.965000070631504,13.95499985665083]",68.0,683.0,312.5,False,20.0,20.0,black,1.0,True,2.0,"20,-20",black,1366.0,625.0,,
79,,<h2 style='background: white;padding: 10px;'> <font color='green'>Correct! </font> </h2>,,html-keyboard-response,79,428794,0.0-20.4-3.4,,,,,,,,,,,,,,,,,,,,,,,,,,,,,,,,,,,,,,,,
80,,<font color='grey'>coh2</font>,,html-keyboard-response,80,429318,0.0-20.5-0.5,,,,,,,,,,,,,,,,,,,,,,,,,,,,,,,,,,,,,,,,
81,,"<div style=""font-size:60px;"">+</div>",,html-keyboard-response,81,429578,0.0-20.5-1.5,,,,,,,,,,,,,,,,,,,,,,,,,,,,,,,,,,,,,,,,
82,1768.6550000216812,,80.0,RDK,82,431349,0.0-20.5-2.5,,True,"k,p",p,4000.0,True,2.0,100.0,1.0,"-90,-90","0.5011872336272722,0",0.0,2.0,7.0,2.0,140.0,550.0,"white,black",gray,2.0,4.0,2.0,16.736952381740725,"[30.72999999858439,15.10499999858439,14.435000019147992,19.169999985024333,15.115000074729323,13.879999984055758,14.635000145062804,17.284999834373593,14.945000177249312,17.204999923706055,16.46499987691641,17.050000140443444,15.350000001490116,17.220000037923455,16.979999840259552,21.30999998189509,11.750000063329935,16.605000011622906,16.499999910593033,18.3100001886487,22.009999956935644,11.549999937415123,14.990000054240227,16.439999919384718,17.645000014454126,21.815000101923943,13.879999984055758,13.169999932870269,16.765000065788627,17.250000033527613,22.98999996855855,13.279999839141965,13.255000114440918,16.659999964758754,18.045000033453107,16.40999992378056,17.745000077411532,15.34499996341765,18.48500012420118,13.854999793693423,17.310000024735928,16.5350001771003,15.879999846220016,16.745000146329403,16.799999866634607,18.275000154972076,15.709999948740005,21.105000050738454,12.519999872893095,15.654999995604157,17.42499996908009,16.435000114142895,15.98499994724989,17.02499995008111,16.47999999113381,16.659999964758754,17.260000109672546,20.144999958574772,12.420000042766333,17.675000010058284,16.799999866634607,16.955000115558505,22.499999962747097,15.870000002905726,14.094999991357327,12.875000014901161,18.165000015869737,18.300000112503767,13.559999875724316,17.139999894425273,16.44500019028783,19.589999923482537,14.84000007621944,16.164999920874834,16.94500003941357,15.434999950230122,16.659999964758754,18.420000094920397,15.759999863803387,16.68000011704862,15.829999931156635,16.675000078976154,18.204999854788184,16.330000013113022,20.625000121071935,16.039999900385737,12.285000178962946,17.19499984756112,16.860000090673566,20.00000001862645,12.524999910965562,16.860000090673566,16.485000029206276,17.799999797716737,20.610000006854534,12.470000190660357,15.819999855011702,16.874999972060323,18.12500017695129,20.834999857470393,12.855000095441937,14.919999986886978,16.550000058487058,19.769999897107482,15.959999989718199]",105.0,683.0,312.5,False,20.0,20.0,black,1.0,True,2.0,"20,-20",black,1366.0,625.0,,
83,,<h2 style='background: white;padding: 10px;'> <font color='green'>Correct! </font> </h2>,,html-keyboard-response,83,431906,0.0-20.5-3.5,,,,,,,,,,,,,,,,,,,,,,,,,,,,,,,,,,,,,,,,
84,,<font color='grey'>coh1</font>,,html-keyboard-response,84,432509,0.0-20.6-0.6,,,,,,,,,,,,,,,,,,,,,,,,,,,,,,,,,,,,,,,,
85,,"<div style=""font-size:60px;"">+</div>",,html-keyboard-response,85,432778,0.0-20.6-1.6,,,,,,,,,,,,,,,,,,,,,,,,,,,,,,,,,,,,,,,,
86,1241.6300000622866,,75.0,RDK,86,434021,0.0-20.6-2.6,,False,"k,p",p,4000.0,True,2.0,100.0,1.0,"-90,-90","0,0.19952623149688797",0.0,2.0,7.0,2.0,140.0,550.0,"black,white",gray,2.0,4.0,2.0,16.804520547874784,"[34.15500000119209,11.335000162944198,21.329999901354313,17.324999906122684,10.14500018209219,11.709999991580844,14.859999995678663,23.289999924600124,12.624999973922968,13.765000039711595,16.915000043809414,16.594999935477972,18.05500010959804,15.619999961927533,16.365000046789646,16.539999982342124,16.57999982126057,16.56999997794628,17.340000020340085,18.129999982193112,15.660000033676624,15.450000064447522,17.070000059902668,18.189999973401427,15.625,18.2799999602139,14.710000017657876,16.374999890103936,17.125000013038516,16.835000133141875,18.739999970421195,14.819999923929572,16.09500008635223,17.299999948590994,16.28999994136393,20.860000047832727,11.919999960809946,16.795000061392784,16.70500007458031,18.539999844506383,20.885000005364418,11.615000199526548,15.749999787658453,16.59000013023615,18.14499986357987,22.570000030100346,11.370000196620822,14.424999943003058,16.71999995596707,20.78999998047948,15.025000087916851,15.140000032261014,16.509999986737967,16.244999831542373,16.260000178590417,16.989999916404486,16.989999916404486,19.714999943971634,12.775000184774399,16.844999976456165,19.7049998678267,14.949999982491136,20.80500009469688,11.849999893456697,16.24000002630055,16.715000150725245,25.09999996982515,11.599999852478504,12.775000184774399,17.08999997936189,17.37500005401671,26.254999917000532,12.279999908059835]",73.0,683.0,312.5,False,20.0,20.0,black,1.0,True,2.0,"20,-20",black,1366.0,625.0,,
87,,<h2 style='background: white;padding: 10px;'> <font color='red'> Wrong. </font>  </h2>,,html-keyboard-response,87,434574,0.0-20.6-3.6,,,,,,,,,,,,,,,,,,,,,,,,,,,,,,,,,,,,,,,,
88,,<font color='grey'>coh2</font>,,html-keyboard-response,88,435179,0.0-20.7-0.7,,,,,,,,,,,,,,,,,,,,,,,,,,,,,,,,,,,,,,,,
89,,"<div style=""font-size:60px;"">+</div>",,html-keyboard-response,89,435431,0.0-20.7-1.7,,,,,,,,,,,,,,,,,,,,,,,,,,,,,,,,,,,,,,,,
90,1097.5350001826882,,75.0,RDK,90,436532,0.0-20.7-2.7,,True,"k,p",k,4000.0,True,2.0,100.0,1.0,"90,90","0.5011872336272722,0",0.0,2.0,7.0,2.0,140.0,550.0,"white,black",gray,2.0,4.0,2.0,17.007109374389984,"[39.58999994210899,16.300000017508864,14.690000098198652,18.249999964609742,12.0599998626858,15.355000039562583,17.330000177025795,25.10999981313944,13.195000123232603,13.539999956265092,14.919999986886978,16.00999990478158,17.4000000115484,16.78499998524785,16.660000197589397,16.039999900385737,16.754999989643693,17.950000008568168,16.254999907687306,15.90500003658235,19.809999968856573,13.245000038295984,17.75999995879829,16.210000030696392,20.985000068321824,12.044999981299043,16.14500000141561,17.4000000115484,16.684999922290444,22.265000035986304,11.83500001206994,15.395000111311674,16.605000011622906,18.075000029057264,22.539999801665545,11.5300000179559,14.315000036731362,16.68999996036291,17.87000009790063,22.624999983236194,11.519999941810966,14.579999959096313,16.620000125840306,17.220000037923455,20.179999992251396,14.324999880045652,15.850000083446503,16.47999999113381,16.370000084862113,17.014999873936176,16.684999922290444,16.82500005699694,15.88000007905066,17.029999988153577,17.155000008642673,16.085000010207295,16.379999928176403,16.805000137537718,16.639999812468886,21.545000141486526,16.64999988861382,25.494999950751662,11.270000133663416,13.719999929890037]",64.0,683.0,312.5,False,20.0,20.0,black,1.0,True,2.0,"20,-20",black,1366.0,625.0,,
91,,<h2 style='background: white;padding: 10px;'> <font color='green'>Correct! </font> </h2>,,html-keyboard-response,91,437098,0.0-20.7-3.7,,,,,,,,,,,,,,,,,,,,,,,,,,,,,,,,,,,,,,,,
92,,<font color='grey'>coh1</font>,,html-keyboard-response,92,437708,0.0-20.8-0.8,,,,,,,,,,,,,,,,,,,,,,,,,,,,,,,,,,,,,,,,
93,,"<div style=""font-size:60px;"">+</div>",,html-keyboard-response,93,437976,0.0-20.8-1.8,,,,,,,,,,,,,,,,,,,,,,,,,,,,,,,,,,,,,,,,
94,1684.2999998480082,,80.0,RDK,94,439663,0.0-20.8-2.8,,True,"k,p",p,4000.0,True,2.0,100.0,1.0,"-90,-90","0.31622776601683794,0",0.0,2.0,7.0,2.0,140.0,550.0,"white,black",gray,2.0,4.0,2.0,16.91308080905465,"[30.310000060126185,12.189999921247363,13.22500011883676,23.375000106170774,9.904999984428287,16.05999981984496,16.915000043809414,16.580000054091215,17.334999982267618,20.435000071302056,14.294999884441495,14.870000071823597,18.41500005684793,14.674999983981252,16.659999964758754,16.589999897405505,16.47000014781952,17.07499986514449,16.64000004529953,16.620000125840306,16.374999890103936,16.645000083371997,16.559999901801348,17.11999997496605,16.68000011704862,16.39499980956316,16.580000054091215,17.21499999985099,34.66500015929341,20.524999825283885,11.845000088214874,15.660000033676624,16.580000054091215,17.374999821186066,26.245000073686242,9.13999998010695,14.470000052824616,16.26499998383224,17.444999888539314,16.290000174194574,16.279999865218997,16.770000103861094,16.43499988131225,17.29500014334917,16.629999969154596,16.539999982342124,16.58499985933304,17.035000026226044,16.174999997019768,18.01500003784895,15.230000019073486,16.654999926686287,16.960000153630972,16.739999875426292,16.94500003941357,16.45500003360212,16.07499993406236,17.4150001257658,15.949999913573265,18.249999964609742,15.325000043958426,16.580000054091215,16.370000084862113,16.509999986737967,17.469999846071005,17.130000051110983,16.035000095143914,16.349999932572246,16.80999994277954,16.730000032112002,16.934999963268638,18.11000006273389,14.925000024959445,16.5049999486655,16.885000048205256,16.66500000283122,16.934999963268638,16.294999979436398,16.714999917894602,16.955000115558505,16.850000014528632,16.02500001899898,16.80999994277954,16.635000007227063,16.670000040903687,17.035000026226044,17.0499999076128,15.595000004395843,16.820000018924475,16.779999947175384,16.275000059977174,17.805000068619847,16.210000030696392,16.22499991208315,17.139999894425273,16.550000058487058,17.250000033527613,16.294999979436398,18.99000001139939]",99.0,683.0,312.5,False,20.0,20.0,black,1.0,True,2.0,"20,-20",black,1366.0,625.0,,
95,,<h2 style='background: white;padding: 10px;'> <font color='green'>Correct! </font> </h2>,,html-keyboard-response,95,440220,0.0-20.8-3.8,,,,,,,,,,,,,,,,,,,,,,,,,,,,,,,,,,,,,,,,
96,,<font color='grey'>coh2</font>,,html-keyboard-response,96,440824,0.0-20.9-0.9,,,,,,,,,,,,,,,,,,,,,,,,,,,,,,,,,,,,,,,,
97,,"<div style=""font-size:60px;"">+</div>",,html-keyboard-response,97,441080,0.0-20.9-1.9,,,,,,,,,,,,,,,,,,,,,,,,,,,,,,,,,,,,,,,,
98,1586.2749998923389,,75.0,RDK,98,442670,0.0-20.9-2.9,,False,"k,p",p,4000.0,True,2.0,100.0,1.0,"-90,-90","0.5011872336272722,0",0.0,2.0,7.0,2.0,140.0,550.0,"white,black",gray,2.0,4.0,2.0,16.660531915902613,"[29.16000015102327,9.104999946430326,12.559999944642186,21.85499994084239,9.430000092834234,15.840000007301569,16.245000064373016,17.035000026226044,17.70500000566244,15.11499984189868,16.790000023320317,16.749999951571226,16.77500014193356,18.42499990016222,15.205000061541796,16.270000021904707,16.795000061392784,16.594999935477972,17.444999888539314,16.030000057071447,16.605000011622906,16.52999990619719,16.724999994039536,16.795000061392784,16.62499993108213,16.275000059977174,16.915000043809414,16.62499993108213,16.840000171214342,15.749999787658453,17.805000068619847,16.874999972060323,16.345000127330422,20.169999916106462,14.285000041127205,15.494999941438437,16.70500007458031,16.589999897405505,16.300000017508864,17.315000062808394,16.45500003360212,16.1549998447299,16.685000155121088,16.739999875426292,16.969999996945262,16.555000096559525,16.670000040903687,16.850000014528632,16.52999990619719,16.670000040903687,18.08000006712973,15.304999891668558,16.580000054091215,16.829999862238765,16.720000188797712,17.174999928101897,16.414999961853027,16.229999950155616,16.650000121444464,17.139999894425273,16.38499996624887,16.570000210776925,17.199999885633588,15.979999909177423,16.790000023320317,16.754999989643693,25.335000129416585,9.180000051856041,15.384999802336097,16.430000076070428,17.059999983757734,16.850000014528632,20.535000134259462,12.19499995931983,16.919999849051237,16.629999969154596,16.88000001013279,16.730000032112002,16.16000011563301,16.8550000526011,16.734999837353826,16.779999947175384,16.690000193193555,16.414999961853027,16.66500000283122,16.829999862238765,16.83000009506941,17.370000015944242,16.09500008635223,16.14500000141561,16.709999879822135,17.28000002913177,16.26499998383224,18.350000027567148]",94.0,683.0,312.5,False,20.0,20.0,black,1.0,True,2.0,"20,-20",black,1366.0,625.0,,
99,,<h2 style='background: white;padding: 10px;'> <font color='red'> Wrong. </font>  </h2>,,html-keyboard-response,99,443224,0.0-20.9-3.9,,,,,,,,,,,,,,,,,,,,,,,,,,,,,,,,,,,,,,,,
100,,<font color='grey'>coh1</font>,,html-keyboard-response,100,443640,0.0-20.10-0.10,,,,,,,,,,,,,,,,,,,,,,,,,,,,,,,,,,,,,,,,
101,,"<div style=""font-size:60px;"">+</div>",,html-keyboard-response,101,443914,0.0-20.10-1.10,,,,,,,,,,,,,,,,,,,,,,,,,,,,,,,,,,,,,,,,
102,1239.1200000420213,,80.0,RDK,102,445155,0.0-20.10-2.10,,True,"k,p",p,4000.0,True,2.0,100.0,1.0,"-90,-90","0.31622776601683794,0",0.0,2.0,7.0,2.0,140.0,550.0,"white,black",gray,2.0,4.0,2.0,16.71239726041278,"[33.7100001052022,9.099999908357859,17.09500001743436,10.815000161528587,18.534999806433916,13.020000187680125,17.294999910518527,15.6099998857826,16.77500014193356,16.694999998435378,16.395000042393804,16.83499990031123,17.20999996177852,16.45500003360212,16.26499998383224,16.61500008776784,16.97500003501773,16.399999847635627,18.44000001437962,14.895000029355288,16.740000108256936,16.589999897405505,16.814999980852008,17.195000080391765,16.40999992378056,16.195000149309635,16.549999825656414,16.940000001341105,16.57500001601875,16.555000096559525,16.74499991349876,16.925000119954348,16.28999994136393,16.83499990031123,18.025000113993883,15.699999872595072,16.294999979436398,16.71000011265278,16.44999999552965,17.26499991491437,17.60500017553568,15.810000011697412,16.054999781772494,16.84500020928681,16.67499984614551,16.659999964758754,16.340000089257956,16.62499993108213,16.814999980852008,16.509999986737967,21.430000197142363,11.949999956414104,16.76999987103045,16.810000175610185,16.59999997355044,17.174999928101897,16.90499996766448,16.36000000871718,16.134999925270677,16.820000018924475,17.274999991059303,15.885000117123127,16.564999939873815,16.940000001341105,17.070000059902668,16.26499998383224,18.145000096410513,15.584999928250909,16.730000032112002,17.134999856352806,16.5200000628829,18.129999982193112,15.924999956041574]",73.0,683.0,312.5,False,20.0,20.0,black,1.0,True,2.0,"20,-20",black,1366.0,625.0,,
103,,<h2 style='background: white;padding: 10px;'> <font color='green'>Correct! </font> </h2>,,html-keyboard-response,103,445707,0.0-20.10-3.10,,,,,,,,,,,,,,,,,,,,,,,,,,,,,,,,,,,,,,,,
104,,<font color='grey'>coh2</font>,,html-keyboard-response,104,446212,0.0-20.11-0.11,,,,,,,,,,,,,,,,,,,,,,,,,,,,,,,,,,,,,,,,
105,,"<div style=""font-size:60px;"">+</div>",,html-keyboard-response,105,446467,0.0-20.11-1.11,,,,,,,,,,,,,,,,,,,,,,,,,,,,,,,,,,,,,,,,
106,1459.6250001341105,,75.0,RDK,106,447928,0.0-20.11-2.11,,True,"k,p",k,4000.0,True,2.0,100.0,1.0,"90,90","0,0.7943282347242814",0.0,2.0,7.0,2.0,140.0,550.0,"black,white",gray,2.0,4.0,2.0,16.8554651155678,"[37.34999988228083,13.670000014826655,12.455000076442957,28.119999915361404,11.855000164359808,12.360000051558018,16.71999995596707,17.634999938309193,25.744999991729856,13.319999910891056,13.17500020377338,13.399999821558595,17.045000102370977,17.274999991059303,16.22499991208315,17.514999955892563,15.510000055655837,16.645000083371997,18.02499988116324,16.234999988228083,16.645000083371997,15.929999994114041,16.294999979436398,17.460000002756715,16.730000032112002,16.820000018924475,16.684999922290444,16.01500017568469,16.43499988131225,16.99999999254942,18.249999964609742,14.940000139176846,16.614999854937196,17.170000122860074,17.85499998368323,22.91000005789101,10.959999868646264,14.644999988377094,16.300000017508864,17.0650000218302,25.78000002540648,11.71500002965331,12.064999900758266,17.310000024735928,16.47999999113381,21.72500011511147,13.839999912306666,14.530000044032931,16.34499989449978,16.5049999486655,18.130000215023756,16.134999925270677,16.309999860823154,16.23000018298626,16.76000002771616,17.699999967589974,16.24000002630055,16.57999982126057,16.075000166893005,18.564999802038074,16.865000128746033,15.254999976605177,19.954999908804893,12.460000114515424,16.670000040903687,17.659999895840883,16.419999999925494,21.865000016987324,15.099999960511923,14.285000041127205,14.875000109896064,22.914999863132834,15.33500012010336,11.91499992273748,16.38499996624887,16.68000011704862,16.94500003941357,16.944999806582928,16.795000061392784,16.499999910593033,16.42500003799796,16.814999980852008,17.17500016093254,16.244999831542373,17.87000009790063,15.189999947324395]",86.0,683.0,312.5,False,20.0,20.0,black,1.0,True,2.0,"20,-20",black,1366.0,625.0,,
107,,<h2 style='background: white;padding: 10px;'> <font color='green'>Correct! </font> </h2>,,html-keyboard-response,107,448493,0.0-20.11-3.11,,,,,,,,,,,,,,,,,,,,,,,,,,,,,,,,,,,,,,,,
108,,<font color='grey'>coh1</font>,,html-keyboard-response,108,449108,0.0-20.12-0.12,,,,,,,,,,,,,,,,,,,,,,,,,,,,,,,,,,,,,,,,
109,,"<div style=""font-size:60px;"">+</div>",,html-keyboard-response,109,449361,0.0-20.12-1.12,,,,,,,,,,,,,,,,,,,,,,,,,,,,,,,,,,,,,,,,
110,1097.844999982044,,80.0,RDK,110,450461,0.0-20.12-2.12,,True,"k,p",p,4000.0,True,2.0,100.0,1.0,"-90,-90","0.19952623149688797,0",0.0,2.0,7.0,2.0,140.0,550.0,"white,black",gray,2.0,4.0,2.0,17.535081969146603,"[55.48500013537705,17.874999903142452,16.80999994277954,30.830000061541796,15.355000039562583,15.189999947324395,16.885000048205256,20.85500000976026,14.289999846369028,14.605000149458647,16.19999995455146,18.085000105202198,16.00999990478158,16.44999999552965,18.2799999602139,15.390000073239207,16.515000024810433,17.22499984316528,15.750000020489097,16.380000161007047,16.764999832957983,16.690000193193555,17.199999885633588,17.114999936893582,22.200000006705523,11.949999956414104,15.330000082030892,16.349999932572246,26.895000133663416,11.919999960809946,12.134999968111515,17.13500008918345,15.409999992698431,27.199999894946814,12.110000010579824,11.769999982789159,15.115000074729323,16.799999866634607,17.764999996870756,15.745000215247273,16.774999909102917,16.555000096559525,16.4899998344481,16.900000162422657,16.469999914988875,18.179999897256494,15.804999973624945,16.060000052675605,16.315000131726265,18.429999938234687,15.334999887272716,16.23000018298626,16.854999819770455,16.780000180006027,17.59999990463257,16.509999986737967,20.64500004053116,12.19499995931983,16.139999963343143,17.785000149160624,17.51999999396503]",61.0,683.0,312.5,False,20.0,20.0,black,1.0,True,2.0,"20,-20",black,1366.0,625.0,,
111,,<h2 style='background: white;padding: 10px;'> <font color='green'>Correct! </font> </h2>,,html-keyboard-response,111,451014,0.0-20.12-3.12,,,,,,,,,,,,,,,,,,,,,,,,,,,,,,,,,,,,,,,,
112,,<font color='grey'>coh2</font>,,html-keyboard-response,112,451519,0.0-20.13-0.13,,,,,,,,,,,,,,,,,,,,,,,,,,,,,,,,,,,,,,,,
113,,"<div style=""font-size:60px;"">+</div>",,html-keyboard-response,113,451782,0.0-20.13-1.13,,,,,,,,,,,,,,,,,,,,,,,,,,,,,,,,,,,,,,,,
114,1057.994999922812,,75.0,RDK,114,452842,0.0-20.13-2.13,,False,"k,p",p,4000.0,True,2.0,100.0,1.0,"-90,-90","0.7943282347242814,0",0.0,2.0,7.0,2.0,140.0,550.0,"white,black",gray,2.0,4.0,2.0,17.405166663229465,"[41.97999997995794,16.08999981544912,17.579999985173345,24.105000076815486,10.079999919980764,12.30500009842217,12.300000060349703,17.84999994561076,22.104999981820583,11.660000076517463,14.405000023543835,16.52999990619719,29.080000007525086,12.744999956339598,12.994999997317791,12.445000000298023,16.26499998383224,17.165000084787607,16.055000014603138,16.419999999925494,16.88000001013279,17.044999869540334,16.195000149309635,17.779999878257513,16.005000099539757,16.779999947175384,17.035000026226044,15.979999909177423,18.690000055357814,14.740000013262033,23.55000004172325,11.350000044330955,14.96999990195036,17.010000068694353,16.444999957457185,20.19999991171062,12.670000083744526,16.56999997794628,49.34499994851649,13.830000068992376,12.199999997392297,12.915000086650252,17.099999822676182,14.36000014655292,15.404999954625964,15.834999969229102,16.220000106841326,16.330000013113022,17.914999974891543,15.574999852105975,16.810000175610185,16.270000021904707,16.774999909102917,17.414999892935157,17.105000093579292,30.07499990053475,13.72000016272068,12.609999859705567,14.535000082105398,21.909999893978238]",60.0,683.0,312.5,False,20.0,20.0,black,1.0,True,2.0,"20,-20",black,1366.0,625.0,,
115,,<h2 style='background: white;padding: 10px;'> <font color='red'> Wrong. </font>  </h2>,,html-keyboard-response,115,453396,0.0-20.13-3.13,,,,,,,,,,,,,,,,,,,,,,,,,,,,,,,,,,,,,,,,
116,,<font color='grey'>coh1</font>,,html-keyboard-response,116,453901,0.0-20.14-0.14,,,,,,,,,,,,,,,,,,,,,,,,,,,,,,,,,,,,,,,,
117,,"<div style=""font-size:60px;"">+</div>",,html-keyboard-response,117,454172,0.0-20.14-1.14,,,,,,,,,,,,,,,,,,,,,,,,,,,,,,,,,,,,,,,,
118,1054.3200001120567,,80.0,RDK,118,455228,0.0-20.14-2.14,,False,"k,p",k,4000.0,True,2.0,100.0,1.0,"90,90","0.19952623149688797,0",0.0,2.0,7.0,2.0,140.0,550.0,"white,black",gray,2.0,4.0,2.0,17.103442624516664,"[32.00500016100705,13.464999850839376,18.20000004954636,35.995000042021275,14.749999856576324,26.465000119060278,15.189999947324395,13.70500004850328,14.475000090897083,13.259999919682741,14.2000000923872,16.38499996624887,14.925000024959445,16.334999818354845,16.90499996766448,16.340000089257956,16.724999994039536,16.594999935477972,17.010000068694353,16.345000127330422,16.1699999589473,16.850000014528632,17.789999954402447,23.999999975785613,15.300000086426735,13.289999915286899,13.844999950379133,16.035000095143914,16.869999933987856,16.70500007458031,16.564999939873815,16.035000095143914,18.39999994263053,15.845000045374036,16.79499982856214,20.275000017136335,12.744999956339598,16.075000166893005,18.429999938234687,15.339999925345182,16.865000128746033,16.150000039488077,17.09500001743436,16.619999893009663,27.824999997392297,12.055000057443976,11.7249998729676,14.895000029355288,16.245000064373016,21.459999959915876,14.435000019147992,15.110000036656857,15.699999872595072,16.860000090673566,17.729999963194132,16.1699999589473,16.59000013023615,15.739999944344163,16.940000001341105,17.87999994121492,16.585000092163682]",61.0,683.0,312.5,False,20.0,20.0,black,1.0,True,2.0,"20,-20",black,1366.0,625.0,,
119,,<h2 style='background: white;padding: 10px;'> <font color='red'> Wrong. </font>  </h2>,,html-keyboard-response,119,455782,0.0-20.14-3.14,,,,,,,,,,,,,,,,,,,,,,,,,,,,,,,,,,,,,,,,
120,,<font color='grey'>coh2</font>,,html-keyboard-response,120,456386,0.0-20.15-0.15,,,,,,,,,,,,,,,,,,,,,,,,,,,,,,,,,,,,,,,,
121,,"<div style=""font-size:60px;"">+</div>",,html-keyboard-response,121,456639,0.0-20.15-1.15,,,,,,,,,,,,,,,,,,,,,,,,,,,,,,,,,,,,,,,,
122,1781.6749999765307,,80.0,RDK,122,458423,0.0-20.15-2.15,,True,"k,p",p,4000.0,True,2.0,100.0,1.0,"-90,-90","0,1",0.0,2.0,7.0,2.0,140.0,550.0,"black,white",gray,2.0,4.0,2.0,16.86778846152055,"[44.544999953359365,13.96999997086823,24.274999974295497,16.99000014923513,10.629999917000532,12.795000104233623,15.159999951720238,16.814999980852008,15.804999973624945,16.950000077486038,16.34499989449978,16.044999938458204,18.00500019453466,16.044999938458204,19.59999999962747,13.06500006467104,16.6999998036772,17.334999982267618,16.910000005736947,24.07500008121133,13.645000057294965,14.96999990195036,13.18500004708767,16.650000121444464,16.46499987691641,16.749999951571226,16.780000180006027,16.57999982126057,27.375000063329935,11.360000120475888,12.054999824613333,16.139999963343143,16.35000016540289,22.690000012516975,14.959999825805426,15.085000079125166,14.854999957606196,16.66500000283122,16.320000169798732,16.639999812468886,17.225000075995922,17.290000105276704,15.179999871179461,16.910000005736947,18.339999951422215,15.085000079125166,19.67000006698072,12.779999990016222,16.940000001341105,17.87999994121492,22.850000066682696,12.349999975413084,13.799999840557575,16.30500005558133,17.46500004082918,20.800000056624413,12.880000052973628,15.584999928250909,16.82500005699694,19.129999913275242,23.79000000655651,13.130000093951821,13.544999994337559,19.129999913275242,12.244999874383211,16.755000222474337,15.974999871104956,17.140000127255917,16.81999978609383,15.910000074654818,16.969999996945262,16.585000092163682,22.259999997913837,11.854999931529164,15.230000019073486,17.054999945685267,16.620000125840306,17.839999869465828,15.379999997094274,16.47000014781952,16.910000005736947,18.154999939724803,27.904999908059835,10.239999974146485,11.910000117495656,15.064999926835299,17.87999994121492,23.40500010177493,11.780000058934093,13.299999991431832,17.084999941289425,18.069999990984797,15.570000046864152,16.5200000628829,16.910000005736947,15.719999792054296,17.115000169724226,17.23999995738268,16.679999884217978,18.050000071525574,15.184999909251928,16.225000144913793,18.30499991774559,15.450000064447522]",104.0,683.0,312.5,False,20.0,20.0,black,1.0,True,2.0,"20,-20",black,1366.0,625.0,,
123,,<h2 style='background: white;padding: 10px;'> <font color='green'>Correct! </font> </h2>,,html-keyboard-response,123,458976,0.0-20.15-3.15,,,,,,,,,,,,,,,,,,,,,,,,,,,,,,,,,,,,,,,,
124,,<font color='grey'>coh1</font>,,html-keyboard-response,124,459382,0.0-20.16-0.16,,,,,,,,,,,,,,,,,,,,,,,,,,,,,,,,,,,,,,,,
125,,"<div style=""font-size:60px;"">+</div>",,html-keyboard-response,125,459661,0.0-20.16-1.16,,,,,,,,,,,,,,,,,,,,,,,,,,,,,,,,,,,,,,,,
126,1261.9050000794232,,75.0,RDK,126,460924,0.0-20.16-2.16,,True,"k,p",k,4000.0,True,2.0,100.0,1.0,"90,90","0,0.25118864315095807",0.0,2.0,7.0,2.0,140.0,550.0,"black,white",gray,2.0,4.0,2.0,16.726800001536805,"[35.01500003039837,10.749999899417162,14.640000183135271,11.814999859780073,16.245000064373016,15.26500005275011,16.56999997794628,17.70500000566244,15.899999998509884,16.44999999552965,16.59999997355044,16.8399999383837,16.865000128746033,16.714999917894602,15.940000070258975,16.869999933987856,16.654999926686287,16.925000119954348,16.79499982856214,16.65500015951693,16.4899998344481,16.740000108256936,16.679999884217978,16.755000222474337,16.36999985203147,16.59999997355044,16.814999980852008,17.32000010088086,17.100000055506825,15.939999837428331,16.25500014051795,16.66500000283122,16.764999832957983,16.810000175610185,16.899999929592013,16.090000048279762,16.850000014528632,16.509999986737967,16.564999939873815,17.32999994419515,16.125000081956387,18.380000023171306,15.179999871179461,16.355000203475356,17.82499998807907,15.91499987989664,16.259999945759773,16.88000001013279,16.844999976456165,17.285000067204237,16.844999976456165,15.630000038072467,16.68000011704862,16.669999808073044,17.029999988153577,22.04499999061227,11.140000075101852,16.285000136122108,16.799999866634607,16.964999958872795,16.650000121444464,16.799999866634607,16.390000004321337,16.910000005736947,16.245000064373016,17.100000055506825,16.45999983884394,16.73500007018447,16.19000011123717,17.005000030621886,16.60999981686473,16.595000168308616,16.749999951571226,16.594999935477972,17.570000141859055]",75.0,683.0,312.5,False,20.0,20.0,black,1.0,True,2.0,"20,-20",black,1366.0,625.0,,
127,,<h2 style='background: white;padding: 10px;'> <font color='green'>Correct! </font> </h2>,,html-keyboard-response,127,461479,0.0-20.16-3.16,,,,,,,,,,,,,,,,,,,,,,,,,,,,,,,,,,,,,,,,
128,,<font color='grey'>coh2</font>,,html-keyboard-response,128,461988,0.0-20.17-0.17,,,,,,,,,,,,,,,,,,,,,,,,,,,,,,,,,,,,,,,,
129,,"<div style=""font-size:60px;"">+</div>",,html-keyboard-response,129,462241,0.0-20.17-1.17,,,,,,,,,,,,,,,,,,,,,,,,,,,,,,,,,,,,,,,,
130,870.8899999037386,,80.0,RDK,130,463117,0.0-20.17-2.17,,True,"k,p",p,4000.0,True,2.0,100.0,1.0,"-90,-90","0,1",0.0,2.0,7.0,2.0,140.0,550.0,"black,white",gray,2.0,4.0,2.0,16.71578431520246,"[40.800000075250864,11.664999881759286,20.73500002734363,6.964999949559569,10.269999969750643,12.265000026673079,17.475000116974115,16.324999975040555,16.00000006146729,16.539999982342124,16.90499996766448,16.605000011622906,17.250000033527613,15.750000020489097,16.81999978609383,16.620000125840306,17.710000043734908,16.730000032112002,15.63499984331429,16.550000058487058,17.21499999985099,17.234999919310212,16.475000185891986,16.774999909102917,16.155000077560544,16.254999907687306,16.88000001013279,16.94500003941357,16.980000073090196,15.99499979056418,16.765000065788627,17.47999992221594,15.940000070258975,16.64000004529953,16.430000076070428,16.820000018924475,16.81999978609383,17.330000177025795,16.19999995455146,15.790000092238188,17.004999797791243,16.930000158026814,16.58499985933304,17.334999982267618,16.294999979436398,16.075000166893005,16.635000007227063,16.605000011622906,17.28000002913177,17.16999989002943,15.850000083446503]",51.0,683.0,312.5,False,20.0,20.0,black,1.0,True,2.0,"20,-20",black,1366.0,625.0,,
131,,<h2 style='background: white;padding: 10px;'> <font color='green'>Correct! </font> </h2>,,html-keyboard-response,131,463670,0.0-20.17-3.17,,,,,,,,,,,,,,,,,,,,,,,,,,,,,,,,,,,,,,,,
132,,<font color='grey'>coh1</font>,,html-keyboard-response,132,464275,0.0-20.18-0.18,,,,,,,,,,,,,,,,,,,,,,,,,,,,,,,,,,,,,,,,
133,,"<div style=""font-size:60px;"">+</div>",,html-keyboard-response,133,464532,0.0-20.18-1.18,,,,,,,,,,,,,,,,,,,,,,,,,,,,,,,,,,,,,,,,
134,996.2150000501424,,80.0,RDK,134,465530,0.0-20.18-2.18,,True,"k,p",p,4000.0,True,2.0,100.0,1.0,"-90,-90","0,0.25118864315095807",0.0,2.0,7.0,2.0,140.0,550.0,"black,white",gray,2.0,4.0,2.0,17.180877190344688,"[37.75999997742474,43.80499990656972,11.41000003553927,10.895000072196126,11.244999943301082,15.080000041052699,18.810000037774444,13.520000036805868,16.734999837353826,16.90499996766448,16.694999998435378,16.250000102445483,17.149999970570207,16.210000030696392,16.86499989591539,17.764999996870756,15.560000203549862,17.11999997496605,16.099999891594052,16.490000067278743,17.324999906122684,16.405000118538737,16.45999983884394,16.585000092163682,16.844999976456165,16.80000009946525,16.629999969154596,16.24999986961484,16.890000086277723,16.779999947175384,16.66500000283122,16.910000005736947,22.56499999202788,12.59499997831881,14.425000175833702,16.66500000283122,18.18499993532896,15.484999865293503,16.525000100955367,16.71000011265278,16.40999992378056,19.36000003479421,14.459999976679683,16.469999914988875,16.40000008046627,16.95499988272786,16.414999961853027,17.045000102370977,16.09500008635223,16.99999999254942,16.64999988861382,16.78499998524785,16.595000168308616,16.389999771490693,16.84500020928681,16.619999893009663,16.74499991349876]",57.0,683.0,312.5,False,20.0,20.0,black,1.0,True,2.0,"20,-20",black,1366.0,625.0,,
135,,<h2 style='background: white;padding: 10px;'> <font color='green'>Correct! </font> </h2>,,html-keyboard-response,135,466093,0.0-20.18-3.18,,,,,,,,,,,,,,,,,,,,,,,,,,,,,,,,,,,,,,,,
136,,<font color='grey'>coh2</font>,,html-keyboard-response,136,466716,0.0-20.19-0.19,,,,,,,,,,,,,,,,,,,,,,,,,,,,,,,,,,,,,,,,
137,,"<div style=""font-size:60px;"">+</div>",,html-keyboard-response,137,466973,0.0-20.19-1.19,,,,,,,,,,,,,,,,,,,,,,,,,,,,,,,,,,,,,,,,
