,trial_type,trial_index,time_elapsed,internal_node_id,rt,stimulus,key_press,responses,correct,choices,correct_choice,trial_duration,response_ends_trial,number_of_apertures,number_of_dots,number_of_sets,coherent_direction,coherence,opposite_coherence,dot_radius,dot_life,move_distance,aperture_width,aperture_height,dot_color,background_color,RDK_type,aperture_type,reinsert_type,frame_rate,frame_rate_array,number_of_frames,aperture_center_x,aperture_center_y,fixation_cross,fixation_cross_width,fixation_cross_height,fixation_cross_color,fixation_cross_thickness,border,colour_config,rotation_config,border_color,canvas_width,canvas_height,stair_coh1,stair_coh2
0,pavlovia,0,4,0.0-0.0,,,,,,,,,,,,,,,,,,,,,,,,,,,,,,,,,,,,,,,,,,,
1,html-keyboard-response,1,21017,0.0-1.0,21012.0,"<div style='background: #d3d3d3;padding: 20px;'><h3> Welcome to the online experiment </h3><p>Sit down comfortably in front of your computer.</p><p>The whole experiment should take about 45 minutes with short breaks. The experiment consists of two parts.</p><p><b>Part 1</b> is shorter and tests whether you qualify to take part in the next part of the experiment.</p><p><b>Part 2</b> is longer. During part 2 you will be also given some breaks.</p><p>You can take as much time as needed during the breaks, but the total time limit for the experiment is  125 minutes.</p>Press <b>SPACE</b> to proceed</div>",32.0,,,,,,,,,,,,,,,,,,,,,,,,,,,,,,,,,,,,,,,,
2,html-keyboard-response,2,25304,0.0-2.0,4287.0,"<div style='background: #d3d3d3;padding: 20px; font-size: 14px;'><h2>General information sheet</h4><b>Introduction.</b> You are being invited to take part in a research study. Before you decide it is important for you to understand why the research is being done and what it will involve. Please take time to read the following information carefully and discuss it with others if you wish. You are free to take as much time as you like to decide whether you wish to participate.<br><b>What is the purpose of the study?</b> The aim of this research is to understand more about how the human brain makes simple decisions.<br><b>Why have I been chosen?</b> As a volunteer you responded to our request for healthy adult subjects to participate in the study.<br><b>Who is organizing this study?</b> This study is organized by researchers at the School of Psychology, Cardiff University.<br><b>Do I have to take part?</b> It is up to you to decide whether or not to take part. If you do decide to take part, you will be asked to sign the consent form on the next page. If you decide to take part, you are still free to withdraw at any time and without giving a reason.<br><b>What does the general procedure involve?</b> Participants will be invited to complete some surveys and behavioural experiments online, using a computer with internet access and a keyboard or a mouse to respond. You would perform some psychological tests of decision making, after careful instruction and a chance to practice. Typically, participants would see dots moving on the screen and they have to decide towards which platform (red or blue) the dots are moving.The experiment consists of 2 parts. The participants might get qualified to part 2 based on their performance from the part 1. Specific instructions will be given before each task. These tests do not use distressing material and are not designed to be stressful or to catch you out.<br><b>What are the possible benefits of taking part? </b>Since we are only studying healthy volunteers, there is no intended clinical benefit to you from taking part in this study. <br><b>Are the procedure and results confidential?</b> All information that is collected about you during the course of this research will be kept anonymous. Demographic information (age, gender, etc.) will be paired with participants' IDs, which are not identifiable or traceable to individuals. We may share the anonymized research data we collect with other researchers. However, any shared data will not contain any personal information so that you cannot be recognised from it. In any sort of report we might publish we will not include information that will make it possible for other people to know your name or identify you in any way.<br>The information provided will be held in compliance with GDPR regulations. Cardiff University is the Data Controller and is committed to respecting and protecting your personal data in accordance with your expectations and Data Protection legislation. The University has a Data Protection Officer who can be contacted at <i>inforequest@cardiff.ac.uk</i>. Further information about Data Protection, including your rights and details about how to contact the Information Commissioner’s Office should you wish to complain, can be found at the following: <i>https://www.cardiff.ac.uk/public-information/policies-and-procedures/data-protection.</i> <br><b>What will happen to the results of the research study? </b>When data from volunteers are collected, they will be analysed and written up for publication in a scientific journal. Where appropriate, the results of this study will be presented at scientific conferences and the media. You will not be identified in any report or publication. <br><b>Who has reviewed the study?</b> This study has been reviewed and approved by the Cardiff University School of Psychology Ethics Committee.<br><b>Contact for Further Information: </b> Dominik Krzeminski (<i>krzeminskidk@cardiff.ac.uk</i>)<br><br>Press <b>SPACE</b> to proceed</div></div>",32.0,,,,,,,,,,,,,,,,,,,,,,,,,,,,,,,,,,,,,,,,
3,survey-html-form,3,35811,0.0-3.0,10505.595000024186,,,,,,,,,,,,,,,,,,,,,,,,,,,,,,,,,,,,,,,,,,
4,survey-multi-choice,4,45330,0.0-4.0,9517.0,,,,,,,,,,,,,,,,,,,,,,,,,,,,,,,,,,,,,,,,,,
5,html-keyboard-response,5,53131,0.0-5.0,7800.0,<div style='background: #d3d3d3;padding: 20px;'><p>In this experiment you need to be both fast and accurate.</p><p><b>Remember to be accurate first!</b> If you commit too many mistakes the experiment will end prematurely and you may not receive the payment.</p>Press <b>SPACE</b> to proceed</div>,32.0,,,,,,,,,,,,,,,,,,,,,,,,,,,,,,,,,,,,,,,,
6,html-keyboard-response,6,80500,0.0-6.0,27369.0,"<div style='background: #d3d3d3;padding: 20px;'><p>You will see dots moving towards four platforms on the edge. Two platforms are in red, and the other two are in blue. </p><h3> You need to decide towards which pair of coloured platforms (red or blue) the dots are moving on average.</h3><p>Use your right middle finger to press <b> p</b> for <font color='blue'> blue </font> (right).</br> Use your right index finger to press <b>k</b> for <font color='red'> red </font>(left).</p>Press <b>SPACE</b> to proceed</div>",32.0,,,,,,,,,,,,,,,,,,,,,,,,,,,,,,,,,,,,,,,,
7,html-keyboard-response,7,92904,0.0-7.0,12404.0,"<div style='background: #d3d3d3;padding: 20px;'><p>Welcome to the <b>PART 1</b> of the experiment.</p><br/><p>In this part, please focus only on WHITE dots on the screen and ignore the BLACK ones.</p><p>Let's start with some practice exercises.</p><p>Remember the task: decide towards which coloured platform (red or blue) the dots are moving on average</p>Press <b>SPACE</b> to proceed</div>",32.0,,,,,,,,,,,,,,,,,,,,,,,,,,,,,,,,,,,,,,,,
8,RDK,8,96909,0.0-8.0-0.0,-1.0,,-1.0,,False,"k,p",k,4000.0,True,2.0,100.0,1.0,"90,90","0,0.8",0.0,2.0,7.0,2.0,140.0,550.0,"black,white",gray,2.0,4.0,2.0,13.351939799342723,"[17.81499999924563,13.240000000223517,13.305000000400469,13.334999996004626,13.360000011743978,13.940000004367903,12.779999990016222,13.390000007348135,13.225000002421439,13.334999996004626,13.414999993983656,13.275000004796311,13.420000002952293,13.399999996181577,13.204999995650724,13.280000013764948,13.644999999087304,14.269999985117465,16.70500001637265,8.629999996628612,13.314999989233911,13.96999999997206,13.29000000259839,12.654999998630956,13.375000009546056,13.229999982286245,13.420000002952293,13.29000000259839,13.305000000400469,13.425000011920929,13.359999982640147,13.365000020712614,13.334999996004626,13.225000002421439,13.405000005150214,13.359999982640147,13.299999991431832,13.355000002775341,13.220000022556633,13.349999993806705,13.399999996181577,13.464999996358529,13.230000011390075,13.324999978067353,13.420000002952293,13.215000013587996,13.424999982817098,13.395000016316772,13.254999998025596,13.355000002775341,13.254999998025596,13.40999998501502,13.260000006994233,13.440000009723008,13.229999982286245,13.380000018514693,13.429999991785735,13.225000002421439,13.340000004973263,13.379999989410862,13.295000011567026,13.399999996181577,13.344999984838068,13.270000024931505,13.32999998703599,13.37000000057742,13.334999996004626,13.355000002775341,13.41000001411885,13.240000000223517,13.469999976223335,13.29000000259839,13.215000013587996,13.440000009723008,13.339999975869432,13.235000020358711,13.314999989233911,13.505000009899959,13.154999993275851,13.479999994160607,13.33000001613982,13.240000000223517,13.44999999855645,13.384999998379499,13.294999982463196,13.269999995827675,13.295000011567026,13.299999991431832,13.500000000931323,13.310000009369105,13.175000000046566,16.459999984363094,13.340000004973263,10.290000005625188,13.505000009899959,13.204999995650724,13.29000000259839,16.390000004321337,10.529999999562278,13.084999984130263,13.460000016493723,13.349999993806705,13.240000000223517,13.384999998379499,13.314999989233911,13.310000009369105,13.379999989410862,13.360000011743978,13.305000000400469,13.364999991608784,13.365000020712614,13.244999980088323,13.41000001411885,13.29000000259839,13.27499997569248,13.485000003129244,13.300000020535663,13.229999982286245,16.555000009248033,10.264999989885837,13.315000018337741,13.24999998905696,13.44999999855645,13.280000013764948,13.349999993806705,13.344999984838068,13.260000006994233,16.470000002300367,13.240000000223517,10.385000001406297,13.29000000259839,13.375000009546056,13.37000000057742,13.139999995473772,13.40999998501502,13.445000018691644,13.214999984484166,13.405000005150214,13.240000000223517,13.40999998501502,13.355000002775341,13.334999996004626,13.29000000259839,13.375000009546056,13.319999998202547,13.390000007348135,13.269999995827675,13.485000003129244,13.175000000046566,13.444999989587814,13.349999993806705,13.230000011390075,13.399999996181577,13.460000016493723,13.24999998905696,13.349999993806705,13.430000020889565,13.134999986505136,13.505000009899959,13.294999982463196,13.25000001816079,13.349999993806705,13.424999982817098,13.17000002018176,13.494999991962686,13.325000007171184,13.334999996004626,13.294999982463196,13.295000011567026,13.475000014295802,13.324999978067353,13.345000013941899,13.245000009192154,13.28999997349456,13.400000025285408,13.314999989233911,13.420000002952293,13.305000000400469,13.245000009192154,13.424999982817098,13.234999991254881,13.380000018514693,13.379999989410862,13.305000000400469,13.33000001613982,13.319999998202547,13.424999982817098,13.315000018337741,13.349999993806705,13.355000002775341,13.240000000223517,13.464999996358529,13.299999991431832,13.739999994868413,12.985000008484349,13.355000002775341,13.149999984307215,13.455000007525086,13.340000004973263,13.240000000223517,13.435000000754371,13.314999989233911,13.345000013941899,13.284999993629754,13.219999993452802,13.495000021066517,13.339999975869432,13.365000020712614,13.399999996181577,13.084999984130263,13.565000001108274,13.185000017983839,13.340000004973263,13.504999980796129,13.189999997848645,13.425000011920929,13.16999999107793,13.460000016493723,13.424999982817098,13.254999998025596,13.310000009369105,13.29000000259839,13.524999987566844,13.345000013941899,13.405000005150214,13.189999997848645,13.379999989410862,13.325000007171184,13.364999991608784,13.204999995650724,13.355000002775341,15.970000007655472,10.719999991124496,13.445000018691644,13.319999998202547,13.334999996004626,13.199999986682087,13.585000007878989,13.204999995650724,13.375000009546056,13.134999986505136,13.514999998733401,13.29000000259839,13.390000007348135,16.295000008540228,10.31499999226071,13.399999996181577,13.340000004973263,13.269999995827675,13.319999998202547,13.364999991608784,13.33000001613982,13.390000007348135,13.254999998025596,13.314999989233911,13.360000011743978,13.454999978421256,13.390000007348135,13.145000004442409,13.295000011567026,13.429999991785735,13.325000007171184,13.414999993983656,13.305000000400469,13.219999993452802,13.32999998703599,13.440000009723008,13.305000000400469,13.355000002775341,13.379999989410862,13.310000009369105,13.475000014295802,13.204999995650724,13.344999984838068,13.375000009546056,13.52999999653548,13.104999990900978,13.380000018514693,13.244999980088323,13.400000025285408,13.28999997349456,13.500000000931323,13.09000002220273,13.40999998501502,13.445000018691644,13.219999993452802,13.294999982463196,13.425000011920929,13.299999991431832,13.295000011567026,13.424999982817098,13.384999998379499,13.275000004796311,13.345000013941899,13.29000000259839,13.344999984838068,13.349999993806705,13.320000027306378,13.554999983171001]",299.0,960.0,468.5,False,20.0,20.0,black,1.0,True,2.0,"45,-45",black,1920.0,937.0,,
9,html-keyboard-response,9,97461,0.0-8.0-1.0,,<h2 style='background: white;padding: 10px;'> <font color='red'> Wrong. </font>  </h2>,,,,,,,,,,,,,,,,,,,,,,,,,,,,,,,,,,,,,,,,,
10,RDK,10,99294,0.0-8.1-0.1,1831.984999997076,,75.0,,True,"k,p",k,4000.0,True,2.0,100.0,1.0,"90,90","0,0.8",0.0,2.0,7.0,2.0,140.0,550.0,"black,white",gray,2.0,4.0,2.0,13.340948904986856,"[14.054999977815896,13.760000001639128,13.070000015432015,13.054999988526106,13.590000016847625,13.134999986505136,13.319999998202547,13.29000000259839,13.384999998379499,13.305000000400469,13.41000001411885,13.399999996181577,13.240000000223517,13.374999980442226,13.220000022556633,13.444999989587814,14.46499998564832,12.230000022100285,13.429999991785735,13.044999999692664,13.305000000400469,14.044999988982454,12.705000001005828,13.189999997848645,13.420000002952293,13.365000020712614,13.240000000223517,13.314999989233911,13.414999993983656,13.230000011390075,13.389999978244305,13.440000009723008,13.295000011567026,13.459999987389892,13.280000013764948,13.21000000461936,13.364999991608784,13.390000007348135,13.254999998025596,13.334999996004626,13.439999980619177,13.335000025108457,13.264999986859038,13.349999993806705,13.420000002952293,13.334999996004626,13.200000015785918,13.459999987389892,13.485000003129244,13.124999997671694,13.254999998025596,13.360000011743978,13.355000002775341,13.470000005327165,13.214999984484166,13.440000009723008,13.19499997771345,13.340000004973263,13.425000011920929,13.245000009192154,13.444999989587814,13.379999989410862,13.225000002421439,13.405000005150214,13.37000000057742,13.280000013764948,13.364999991608784,13.399999996181577,13.195000006817281,13.420000002952293,13.305000000400469,13.299999991431832,13.390000007348135,13.374999980442226,13.25000001816079,13.544999994337559,13.230000011390075,13.379999989410862,13.21000000461936,13.44999999855645,13.225000002421439,13.334999996004626,13.435000000754371,13.179999979911372,13.510000018868595,13.284999993629754,13.349999993806705,13.195000006817281,13.444999989587814,13.46500002546236,13.334999996004626,13.204999995650724,13.384999998379499,13.310000009369105,13.254999998025596,13.394999987212941,13.394999987212941,13.295000011567026,13.245000009192154,13.455000007525086,13.399999996181577,13.19499997771345,13.425000011920929,13.375000009546056,13.334999996004626,13.374999980442226,13.305000000400469,13.340000004973263,13.334999996004626,13.319999998202547,13.25000001816079,13.40999998501502,13.310000009369105,13.275000004796311,13.384999998379499,13.364999991608784,13.334999996004626,13.405000005150214,13.260000006994233,13.245000009192154,13.379999989410862,13.375000009546056,13.349999993806705,13.275000004796311,13.374999980442226,13.375000009546056,13.364999991608784,13.195000006817281,13.355000002775341,13.345000013941899,13.52999999653548,13.184999988880008,13.379999989410862,13.350000022910535,13.305000000400469,13.379999989410862,13.334999996004626]",137.0,960.0,468.5,False,20.0,20.0,black,1.0,True,2.0,"45,-45",black,1920.0,937.0,,
11,html-keyboard-response,11,99846,0.0-8.1-1.1,,<h2 style='background: white;padding: 10px;'> <font color='green'>Correct! </font> </h2>,,,,,,,,,,,,,,,,,,,,,,,,,,,,,,,,,,,,,,,,,
12,html-keyboard-response,12,101757,0.0-9.0,1910.0,<div style='background: #d3d3d3;padding: 20px;'><p>Let's try one more time.</p>Press <b>SPACE</b> to proceed</div>,32.0,,,,,,,,,,,,,,,,,,,,,,,,,,,,,,,,,,,,,,,,
13,RDK,13,104243,0.0-10.0-0.0,2485.144999984186,,75.0,,False,"k,p",p,4000.0,True,2.0,100.0,1.0,"-90,-90","0.5,0",0.0,2.0,7.0,2.0,140.0,550.0,"white,black",gray,2.0,4.0,2.0,13.33604838701606,"[14.599999994970858,11.689999984810129,13.320000027306378,13.254999998025596,13.299999991431832,13.355000002775341,13.269999995827675,13.325000007171184,13.344999984838068,13.300000020535663,13.559999992139637,13.21000000461936,13.29000000259839,13.309999980265275,13.37000000057742,13.29000000259839,13.444999989587814,13.360000011743978,13.310000009369105,13.24999998905696,17.380000004777685,9.465000010095537,13.204999995650724,13.414999993983656,13.340000004973263,13.219999993452802,13.444999989587814,13.360000011743978,13.230000011390075,13.419999973848462,13.350000022910535,13.24999998905696,13.425000011920929,13.340000004973263,13.419999973848462,13.17000002018176,13.32999998703599,13.319999998202547,13.425000011920929,13.260000006994233,13.429999991785735,13.459999987389892,13.13000000664033,13.429999991785735,13.405000005150214,13.275000004796311,13.375000009546056,13.279999984661117,13.225000002421439,13.455000007525086,13.379999989410862,13.230000011390075,13.429999991785735,13.825000001816079,12.92999999714084,13.299999991431832,13.295000011567026,13.269999995827675,13.295000011567026,13.420000002952293,13.399999996181577,13.254999998025596,13.279999984661117,13.420000002952293,13.390000007348135,13.355000002775341,13.165000011213124,13.454999978421256,13.375000009546056,13.184999988880008,13.400000025285408,13.319999998202547,13.389999978244305,13.325000007171184,13.390000007348135,13.359999982640147,13.350000022910535,13.244999980088323,13.310000009369105,13.295000011567026,13.309999980265275,13.380000018514693,13.394999987212941,13.225000002421439,13.384999998379499,13.464999996358529,13.230000011390075,13.420000002952293,13.464999996358529,13.214999984484166,16.550000000279397,10.110000002896413,13.25000001816079,13.309999980265275,13.345000013941899,13.414999993983656,13.269999995827675,13.375000009546056,13.474999985191971,13.195000006817281,13.555000012274832,13.160000002244487,13.454999978421256,13.240000000223517,13.265000015962869,13.435000000754371,13.319999998202547,13.225000002421439,13.435000000754371,13.399999996181577,13.390000007348135,13.144999975338578,13.440000009723008,13.314999989233911,13.270000024931505,13.359999982640147,13.41000001411885,13.214999984484166,13.435000000754371,13.284999993629754,13.29000000259839,13.415000023087487,13.324999978067353,13.345000013941899,13.375000009546056,13.254999998025596,13.284999993629754,13.355000002775341,13.309999980265275,13.355000002775341,13.37000000057742,13.420000002952293,13.395000016316772,13.225000002421439,13.344999984838068,13.360000011743978,13.264999986859038,13.49000001209788,13.309999980265275,13.29000000259839,13.33000001613982,13.37000000057742,13.269999995827675,13.474999985191971,13.220000022556633,13.40999998501502,13.230000011390075,13.414999993983656,13.399999996181577,13.160000002244487,13.474999985191971,13.335000025108457,13.27499997569248,13.315000018337741,13.355000002775341,13.399999996181577,13.294999982463196,13.360000011743978,13.219999993452802,13.525000016670674,13.244999980088323,13.29000000259839,13.405000005150214,13.254999998025596,13.405000005150214,13.399999996181577,13.280000013764948,13.29000000259839,13.339999975869432,13.390000007348135,13.420000002952293,13.280000013764948,16.389999975217506,10.250000021187589,16.485000000102445,10.41999997687526,13.085000013234094,13.524999987566844,13.109999999869615,13.485000003129244,13.269999995827675,13.38500002748333,13.244999980088323,13.349999993806705,13.38500002748333,13.534999976400286]",186.0,960.0,468.5,False,20.0,20.0,black,1.0,True,2.0,"45,-45",black,1920.0,937.0,,
14,html-keyboard-response,14,104795,0.0-10.0-1.0,,<h2 style='background: white;padding: 10px;'> <font color='red'> Wrong. </font>  </h2>,,,,,,,,,,,,,,,,,,,,,,,,,,,,,,,,,,,,,,,,,
15,RDK,15,106580,0.0-10.1-0.1,1784.1750000079626,,80.0,,True,"k,p",p,4000.0,True,2.0,100.0,1.0,"-90,-90","0.5,0",0.0,2.0,7.0,2.0,140.0,550.0,"white,black",gray,2.0,4.0,2.0,13.357556390898175,"[16.170000017154962,13.28999997349456,13.310000009369105,13.364999991608784,13.200000015785918,13.355000002775341,13.374999980442226,13.230000011390075,13.379999989410862,13.335000025108457,13.294999982463196,13.405000005150214,13.305000000400469,13.325000007171184,13.269999995827675,13.364999991608784,13.37000000057742,13.509999989764765,13.195000006817281,13.325000007171184,13.455000007525086,13.279999984661117,13.319999998202547,13.470000005327165,13.295000011567026,13.214999984484166,13.230000011390075,13.405000005150214,16.46499999333173,10.29999999445863,13.395000016316772,13.20999997551553,13.57000001007691,13.280000013764948,13.264999986859038,13.275000004796311,13.379999989410862,16.31999999517575,10.265000018989667,13.394999987212941,13.435000000754371,13.195000006817281,13.420000002952293,13.334999996004626,13.234999991254881,13.380000018514693,13.324999978067353,13.325000007171184,13.444999989587814,13.335000025108457,13.284999993629754,13.24999998905696,13.405000005150214,13.375000009546056,13.324999978067353,13.280000013764948,13.314999989233911,13.33000001613982,13.420000002952293,13.294999982463196,13.325000007171184,13.44999999855645,13.215000013587996,13.464999996358529,13.29000000259839,13.284999993629754,13.325000007171184,13.364999991608784,13.440000009723008,13.189999997848645,13.424999982817098,13.33000001613982,13.24999998905696,13.384999998379499,13.494999991962686,13.145000004442409,13.384999998379499,13.415000023087487,13.204999995650724,13.485000003129244,13.234999991254881,13.390000007348135,13.219999993452802,13.459999987389892,13.390000007348135,13.305000000400469,13.325000007171184,13.234999991254881,13.500000000931323,13.230000011390075,13.254999998025596,13.37000000057742,13.500000000931323,13.175000000046566,13.414999993983656,13.319999998202547,13.264999986859038,13.510000018868595,13.29000000259839,13.234999991254881,16.494999988935888,10.165000014239922,13.334999996004626,13.444999989587814,13.350000022910535,13.224999973317608,13.415000023087487,13.394999987212941,13.314999989233911,13.405000005150214,13.254999998025596,13.225000002421439,13.37000000057742,13.445000018691644,13.234999991254881,13.344999984838068,13.380000018514693,13.399999996181577,13.275000004796311,13.294999982463196,13.37000000057742,13.260000006994233,13.435000000754371,13.364999991608784,13.254999998025596,13.430000020889565,13.225000002421439,13.29000000259839,13.459999987389892,13.384999998379499,13.269999995827675,13.33000001613982,13.339999975869432]",133.0,960.0,468.5,False,20.0,20.0,black,1.0,True,2.0,"45,-45",black,1920.0,937.0,,
16,html-keyboard-response,16,107133,0.0-10.1-1.1,,<h2 style='background: white;padding: 10px;'> <font color='green'>Correct! </font> </h2>,,,,,,,,,,,,,,,,,,,,,,,,,,,,,,,,,,,,,,,,,
17,html-keyboard-response,17,109235,0.0-11.0,2101.0,<div style='background: #d3d3d3;padding: 20px;'><p>With time trials will start getting more difficult.</p>Press <b>SPACE</b> to proceed</div>,32.0,,,,,,,,,,,,,,,,,,,,,,,,,,,,,,,,,,,,,,,,
18,RDK,18,110782,0.0-12.0-0.0,1546.2549999938346,,75.0,,True,"k,p",k,4000.0,True,2.0,100.0,1.0,"90,90","0.1,0",0.0,2.0,7.0,2.0,140.0,550.0,"white,black",gray,2.0,4.0,2.0,13.260344827672114,"[4.6199999924283475,13.225000002421439,13.345000013941899,13.254999998025596,13.245000009192154,13.514999998733401,13.284999993629754,13.234999991254881,13.445000018691644,13.254999998025596,13.420000002952293,13.319999998202547,13.459999987389892,13.160000002244487,13.429999991785735,13.33000001613982,13.164999982109293,13.375000009546056,13.349999993806705,13.284999993629754,13.510000018868595,13.260000006994233,13.514999998733401,13.184999988880008,13.295000011567026,13.254999998025596,13.459999987389892,13.310000009369105,13.524999987566844,13.16999999107793,13.255000027129427,13.389999978244305,13.300000020535663,13.37000000057742,13.334999996004626,13.389999978244305,13.350000022910535,16.275000001769513,10.279999987687916,13.345000013941899,13.504999980796129,13.204999995650724,13.430000020889565,13.284999993629754,13.310000009369105,13.339999975869432,13.460000016493723,13.275000004796311,17.174999986309558,9.480000007897615,13.204999995650724,13.440000009723008,13.344999984838068,13.315000018337741,13.35499997367151,13.415000023087487,13.349999993806705,13.225000002421439,13.40999998501502,13.310000009369105,13.414999993983656,13.240000000223517,13.44999999855645,13.240000000223517,13.520000007702038,13.184999988880008,13.240000000223517,13.464999996358529,16.565000027185306,9.999999980209395,13.460000016493723,16.509999986737967,10.815000016009435,12.704999971901998,13.225000002421439,13.29000000259839,13.480000023264438,13.28999997349456,13.285000022733584,13.355000002775341,13.429999991785735,13.399999996181577,13.474999985191971,13.205000024754554,13.184999988880008,13.349999993806705,13.375000009546056,13.334999996004626,13.310000009369105,13.500000000931323,13.279999984661117,13.219999993452802,13.415000023087487,13.29000000259839,13.404999976046383,13.280000013764948,13.279999984661117,13.405000005150214,13.33000001613982,13.324999978067353,13.355000002775341,13.375000009546056,13.299999991431832,13.340000004973263,13.384999998379499,13.234999991254881,13.295000011567026,13.390000007348135,16.494999988935888,10.180000012042001,13.314999989233911,13.470000005327165,13.160000002244487,13.37000000057742,13.37000000057742,13.305000000400469]",116.0,960.0,468.5,False,20.0,20.0,black,1.0,True,2.0,"45,-45",black,1920.0,937.0,,
19,html-keyboard-response,19,111334,0.0-12.0-1.0,,<h2 style='background: white;padding: 10px;'> <font color='green'>Correct! </font> </h2>,,,,,,,,,,,,,,,,,,,,,,,,,,,,,,,,,,,,,,,,,
20,html-keyboard-response,20,112472,0.0-13.0,1137.0,<div style='background: #d3d3d3;padding: 20px;'><p>Let's try a few more times to practice.</p>Press <b>SPACE</b> to proceed</div>,32.0,,,,,,,,,,,,,,,,,,,,,,,,,,,,,,,,,,,,,,,,
21,RDK,21,113998,0.0-14.0-0.0,1524.9100000073665,,80.0,,True,"k,p",p,-1.0,True,2.0,100.0,1.0,"-90,-90","0,0.1",0.0,2.0,7.0,2.0,140.0,550.0,"black,white",gray,2.0,4.0,2.0,13.293991228126464,"[8.814999979222193,16.060000023571774,10.29999999445863,13.284999993629754,13.429999991785735,13.240000000223517,13.395000016316772,13.314999989233911,13.295000011567026,13.305000000400469,13.405000005150214,13.279999984661117,13.405000005150214,13.340000004973263,13.299999991431832,13.41000001411885,13.32999998703599,13.254999998025596,16.570000007050112,10.225000005448237,13.179999979911372,13.495000021066517,13.399999996181577,13.624999992316589,12.900000001536682,13.394999987212941,13.254999998025596,13.319999998202547,13.400000025285408,13.305000000400469,13.299999991431832,13.479999994160607,13.319999998202547,13.219999993452802,13.44999999855645,13.415000023087487,13.319999998202547,13.259999977890402,13.345000013941899,13.16999999107793,13.555000012274832,13.204999995650724,13.325000007171184,13.349999993806705,13.319999998202547,13.340000004973263,13.379999989410862,13.505000009899959,13.16999999107793,13.405000005150214,13.275000004796311,13.284999993629754,13.800000015180558,13.124999997671694,13.095000002067536,13.414999993983656,13.29000000259839,13.454999978421256,13.315000018337741,13.299999991431832,16.60999999148771,10.090000025229529,13.229999982286245,13.345000013941899,13.40999998501502,13.405000005150214,13.165000011213124,13.309999980265275,13.470000005327165,13.325000007171184,13.319999998202547,13.665000005858019,13.044999999692664,13.374999980442226,13.440000009723008,13.540000014472753,12.959999992744997,13.279999984661117,13.390000007348135,13.41000001411885,13.264999986859038,13.319999998202547,13.280000013764948,13.384999998379499,13.435000000754371,13.305000000400469,13.299999991431832,13.295000011567026,13.419999973848462,13.375000009546056,13.340000004973263,13.340000004973263,13.305000000400469,13.32999998703599,13.269999995827675,13.319999998202547,13.445000018691644,13.164999982109293,13.37000000057742,13.400000025285408,13.32999998703599,13.29000000259839,13.405000005150214,13.394999987212941,13.364999991608784,13.380000018514693,13.189999997848645,13.359999982640147,13.305000000400469,13.405000005150214,13.315000018337741,13.319999998202547,13.359999982640147,13.220000022556633]",114.0,960.0,468.5,False,20.0,20.0,black,1.0,True,2.0,"45,-45",black,1920.0,937.0,,
22,html-keyboard-response,22,114551,0.0-14.0-1.0,,<h2 style='background: white;padding: 10px;'> <font color='green'>Correct! </font> </h2>,,,,,,,,,,,,,,,,,,,,,,,,,,,,,,,,,,,,,,,,,
23,RDK,23,116317,0.0-14.1-0.1,1765.3750000172297,,75.0,,True,"k,p",k,-1.0,True,2.0,100.0,1.0,"90,90","0.05,0",0.0,2.0,7.0,2.0,140.0,550.0,"white,black",gray,2.0,4.0,2.0,13.413320610544979,"[10.01999998698011,13.305000000400469,13.375000009546056,13.189999997848645,13.305000000400469,13.359999982640147,13.280000013764948,13.32999998703599,13.350000022910535,13.334999996004626,13.359999982640147,13.285000022733584,13.374999980442226,13.254999998025596,13.365000020712614,13.344999984838068,13.295000011567026,13.394999987212941,13.479999994160607,13.280000013764948,13.305000000400469,13.429999991785735,13.215000013587996,13.389999978244305,13.335000025108457,13.35499997367151,13.54500002344139,13.109999999869615,13.299999991431832,13.349999993806705,13.360000011743978,13.364999991608784,13.264999986859038,13.360000011743978,13.334999996004626,13.334999996004626,13.440000009723008,13.275000004796311,13.299999991431832,13.305000000400469,13.305000000400469,13.364999991608784,13.380000018514693,13.344999984838068,13.375000009546056,13.379999989410862,13.285000022733584,13.359999982640147,13.355000002775341,25.04499998758547,14.900000009220093,13.334999996004626,13.395000016316772,13.319999998202547,13.32999998703599,13.425000011920929,13.284999993629754,13.524999987566844,13.145000004442409,13.269999995827675,13.355000002775341,13.315000018337741,13.355000002775341,13.305000000400469,13.309999980265275,13.395000016316772,13.44999999855645,13.13000000664033,13.744999974733219,12.990000017452985,13.479999994160607,13.360000011743978,13.184999988880008,13.470000005327165,13.279999984661117,13.305000000400469,13.78500001737848,13.000000006286427,13.159999973140657,13.435000000754371,13.340000004973263,13.345000013941899,13.305000000400469,13.279999984661117,13.269999995827675,13.400000025285408,13.37000000057742,13.334999996004626,13.349999993806705,13.32999998703599,13.295000011567026,13.474999985191971,13.500000000931323,13.125000026775524,13.43499997165054,13.280000013764948,13.24999998905696,13.270000024931505,13.429999991785735,13.420000002952293,13.184999988880008,13.384999998379499,13.254999998025596,13.334999996004626,13.395000016316772,13.394999987212941,13.25000001816079,13.334999996004626,13.40999998501502,13.295000011567026,13.435000000754371,13.240000000223517,13.414999993983656,13.254999998025596,13.49000001209788,13.189999997848645,13.294999982463196,13.384999998379499,13.319999998202547,13.315000018337741,13.455000007525086,13.344999984838068,13.299999991431832,13.345000013941899,13.334999996004626,13.29000000259839,13.414999993983656,13.455000007525086,13.240000000223517,13.269999995827675,13.414999993983656]",131.0,960.0,468.5,False,20.0,20.0,black,1.0,True,2.0,"45,-45",black,1920.0,937.0,,
24,html-keyboard-response,24,116870,0.0-14.1-1.1,,<h2 style='background: white;padding: 10px;'> <font color='green'>Correct! </font> </h2>,,,,,,,,,,,,,,,,,,,,,,,,,,,,,,,,,,,,,,,,,
25,RDK,25,118008,0.0-14.2-0.2,1137.7450000145473,,75.0,,True,"k,p",k,-1.0,True,2.0,100.0,1.0,"90,90","0.1,0",0.0,2.0,7.0,2.0,140.0,550.0,"white,black",gray,2.0,4.0,2.0,13.320235294111841,"[12.045000010402873,13.275000004796311,13.299999991431832,13.384999998379499,13.275000004796311,13.225000002421439,13.444999989587814,13.284999993629754,13.365000020712614,13.389999978244305,13.215000013587996,13.37000000057742,13.414999993983656,13.384999998379499,13.230000011390075,13.444999989587814,13.334999996004626,13.180000009015203,13.429999991785735,13.325000007171184,13.280000013764948,13.424999982817098,13.235000020358711,13.509999989764765,13.234999991254881,13.349999993806705,13.260000006994233,13.460000016493723,13.269999995827675,13.359999982640147,13.384999998379499,13.275000004796311,13.310000009369105,13.435000000754371,13.219999993452802,13.345000013941899,13.435000000754371,13.24999998905696,13.360000011743978,13.464999996358529,13.214999984484166,13.305000000400469,13.52999999653548,13.265000015962869,13.275000004796311,13.379999989410862,13.299999991431832,13.280000013764948,13.435000000754371,13.384999998379499,13.269999995827675,13.279999984661117,13.375000009546056,13.310000009369105,13.340000004973263,13.32999998703599,13.325000007171184,13.294999982463196,16.595000022789463,10.784999991301447,12.695000012172386,13.384999998379499,13.264999986859038,13.470000005327165,13.340000004973263,13.184999988880008,13.390000007348135,13.390000007348135,13.589999987743795,13.115000008838251,13.340000004973263,13.264999986859038,13.414999993983656,13.319999998202547,13.230000011390075,13.500000000931323,13.240000000223517,13.21000000461936,13.534999976400286,13.405000005150214,13.120000017806888,13.309999980265275,13.380000018514693,13.44999999855645,13.214999984484166]",85.0,960.0,468.5,False,20.0,20.0,black,1.0,True,2.0,"45,-45",black,1920.0,937.0,,
26,html-keyboard-response,26,118560,0.0-14.2-1.2,,<h2 style='background: white;padding: 10px;'> <font color='green'>Correct! </font> </h2>,,,,,,,,,,,,,,,,,,,,,,,,,,,,,,,,,,,,,,,,,
27,RDK,27,120106,0.0-14.3-0.3,1545.4849999805447,,80.0,,True,"k,p",p,-1.0,True,2.0,100.0,1.0,"-90,-90","0,0.4",0.0,2.0,7.0,2.0,140.0,550.0,"black,white",gray,2.0,4.0,2.0,13.359130434590675,"[15.935000003082678,13.454999978421256,13.215000013587996,13.240000000223517,13.229999982286245,13.49000001209788,13.269999995827675,13.310000009369105,13.340000004973263,13.305000000400469,13.355000002775341,13.344999984838068,13.440000009723008,13.319999998202547,13.189999997848645,13.420000002952293,13.344999984838068,13.41000001411885,13.199999986682087,13.405000005150214,13.295000011567026,13.319999998202547,13.399999996181577,13.364999991608784,13.299999991431832,13.340000004973263,13.245000009192154,13.349999993806705,13.395000016316772,16.28999999957159,10.37999999243766,17.149999999674037,9.510000003501773,13.325000007171184,13.404999976046383,13.335000025108457,13.244999980088323,13.355000002775341,13.345000013941899,13.394999987212941,13.340000004973263,13.275000004796311,13.429999991785735,13.32999998703599,13.235000020358711,13.524999987566844,13.240000000223517,13.334999996004626,13.269999995827675,13.445000018691644,13.32999998703599,13.200000015785918,13.52999999653548,13.32999998703599,13.139999995473772,13.440000009723008,13.375000009546056,13.279999984661117,13.440000009723008,13.269999995827675,13.340000004973263,13.364999991608784,13.245000009192154,13.299999991431832,13.420000002952293,13.310000009369105,13.44999999855645,13.275000004796311,13.240000000223517,13.414999993983656,13.314999989233911,13.37000000057742,13.460000016493723,13.184999988880008,13.360000011743978,13.339999975869432,13.375000009546056,13.195000006817281,13.52999999653548,13.21000000461936,13.364999991608784,13.33000001613982,13.299999991431832,13.485000003129244,13.309999980265275,13.240000000223517,13.400000025285408,13.384999998379499,13.219999993452802,13.364999991608784,13.260000006994233,13.32999998703599,13.395000016316772,13.359999982640147,13.254999998025596,13.340000004973263,13.455000007525086,13.225000002421439,13.414999993983656,13.33000001613982,13.244999980088323,13.435000000754371,13.52999999653548,13.075000024400651,13.314999989233911,13.349999993806705,13.384999998379499,13.429999991785735,13.455000007525086,13.185000017983839,13.414999993983656,13.355000002775341,13.189999997848645,13.52999999653548,13.214999984484166]",115.0,960.0,468.5,False,20.0,20.0,black,1.0,True,2.0,"45,-45",black,1920.0,937.0,,
28,html-keyboard-response,28,120659,0.0-14.3-1.3,,<h2 style='background: white;padding: 10px;'> <font color='green'>Correct! </font> </h2>,,,,,,,,,,,,,,,,,,,,,,,,,,,,,,,,,,,,,,,,,
29,RDK,29,122969,0.0-14.4-0.4,2309.43500000285,,75.0,,True,"k,p",k,-1.0,True,2.0,100.0,1.0,"90,90","0.1,0",0.0,2.0,7.0,2.0,140.0,550.0,"white,black",gray,2.0,4.0,2.0,13.3230346820258,"[10.905000002821907,13.16999999107793,13.379999989410862,13.364999991608784,13.230000011390075,16.590000013820827,10.089999996125698,13.334999996004626,13.379999989410862,13.440000009723008,13.360000011743978,13.359999982640147,13.139999995473772,13.399999996181577,13.340000004973263,13.420000002952293,13.334999996004626,13.29000000259839,13.299999991431832,13.355000002775341,13.300000020535663,13.359999982640147,13.390000007348135,13.314999989233911,13.550000003306195,13.204999995650724,13.175000000046566,13.325000007171184,13.41000001411885,13.229999982286245,13.455000007525086,13.284999993629754,13.340000004973263,13.414999993983656,13.350000022910535,13.339999975869432,13.319999998202547,13.335000025108457,13.314999989233911,13.32999998703599,13.29000000259839,13.390000007348135,13.24999998905696,13.390000007348135,13.360000011743978,13.324999978067353,13.395000016316772,13.344999984838068,13.320000027306378,13.32999998703599,13.44999999855645,13.150000013411045,13.429999991785735,13.199999986682087,13.475000014295802,13.379999989410862,13.384999998379499,13.315000018337741,13.254999998025596,13.37000000057742,13.269999995827675,13.444999989587814,13.180000009015203,13.344999984838068,13.500000000931323,13.215000013587996,13.32999998703599,13.280000013764948,13.29000000259839,13.479999994160607,13.264999986859038,13.425000011920929,13.325000007171184,13.29000000259839,13.284999993629754,13.444999989587814,13.230000011390075,13.374999980442226,13.295000011567026,13.360000011743978,13.435000000754371,13.305000000400469,13.294999982463196,13.405000005150214,13.444999989587814,13.230000011390075,13.24999998905696,13.415000023087487,13.319999998202547,13.439999980619177,13.265000015962869,13.359999982640147,13.270000024931505,13.404999976046383,13.245000009192154,13.360000011743978,13.444999989587814,13.204999995650724,13.33000001613982,13.549999974202365,13.155000022379681,16.54499999131076,10.500000003958121,13.000000006286427,13.344999984838068,16.510000015841797,10.11499998276122,13.315000018337741,13.444999989587814,13.245000009192154,13.44999999855645,13.314999989233911,13.319999998202547,13.230000011390075,13.334999996004626,13.394999987212941,13.269999995827675,16.605000011622906,13.254999998025596,13.345000013941899,10.240000003250316,13.44999999855645,13.119999988703057,13.535000005504116,13.314999989233911,13.360000011743978,13.305000000400469,13.275000004796311,13.454999978421256,13.395000016316772,13.254999998025596,13.21000000461936,13.439999980619177,13.269999995827675,13.245000009192154,13.475000014295802,13.364999991608784,13.344999984838068,13.390000007348135,13.225000002421439,13.494999991962686,13.245000009192154,13.260000006994233,13.355000002775341,13.305000000400469,13.420000002952293,13.284999993629754,13.420000002952293,13.384999998379499,13.284999993629754,13.189999997848645,13.440000009723008,13.349999993806705,13.319999998202547,13.360000011743978,13.349999993806705,13.264999986859038,13.334999996004626,13.440000009723008,13.200000015785918,13.464999996358529,13.349999993806705,13.154999993275851,13.464999996358529,13.340000004973263,13.305000000400469,13.355000002775341,13.295000011567026,13.32999998703599,13.364999991608784,13.295000011567026,13.319999998202547,13.435000000754371]",173.0,960.0,468.5,False,20.0,20.0,black,1.0,True,2.0,"45,-45",black,1920.0,937.0,,
30,html-keyboard-response,30,123521,0.0-14.4-1.4,,<h2 style='background: white;padding: 10px;'> <font color='green'>Correct! </font> </h2>,,,,,,,,,,,,,,,,,,,,,,,,,,,,,,,,,,,,,,,,,
31,RDK,31,124344,0.0-14.5-0.5,822.4549999868033,,75.0,,True,"k,p",k,-1.0,True,2.0,100.0,1.0,"90,90","0.1,0",0.0,2.0,7.0,2.0,140.0,550.0,"white,black",gray,2.0,4.0,2.0,13.385819671980915,"[16.354999999748543,13.355000002775341,16.245000006165355,10.385000001406297,13.225000002421439,13.429999991785735,13.230000011390075,13.37000000057742,13.339999975869432,13.265000015962869,13.420000002952293,13.324999978067353,13.305000000400469,13.33000001613982,13.470000005327165,13.284999993629754,13.305000000400469,13.355000002775341,13.225000002421439,13.414999993983656,13.390000007348135,13.24999998905696,17.354999989038333,9.450000012293458,13.314999989233911,13.235000020358711,13.40999998501502,13.269999995827675,13.505000009899959,13.32999998703599,13.550000003306195,13.520000007702038,12.799999996786937,13.390000007348135,13.29000000259839,16.354999999748543,10.374999983469024,13.254999998025596,13.45000002766028,13.189999997848645,13.524999987566844,13.41000001411885,13.16999999107793,13.294999982463196,13.445000018691644,13.234999991254881,13.305000000400469,13.455000007525086,13.455000007525086,13.234999991254881,13.310000009369105,13.374999980442226,13.345000013941899,13.439999980619177,13.13000000664033,13.414999993983656,13.355000002775341,13.235000020358711,13.324999978067353,13.435000000754371,13.319999998202547]",61.0,960.0,468.5,False,20.0,20.0,black,1.0,True,2.0,"45,-45",black,1920.0,937.0,,
32,html-keyboard-response,32,124897,0.0-14.5-1.5,,<h2 style='background: white;padding: 10px;'> <font color='green'>Correct! </font> </h2>,,,,,,,,,,,,,,,,,,,,,,,,,,,,,,,,,,,,,,,,,
33,RDK,33,125821,0.0-14.6-0.6,923.49999997532,,75.0,,True,"k,p",k,-1.0,True,2.0,100.0,1.0,"90,90","0.1,0",0.0,2.0,7.0,2.0,140.0,550.0,"white,black",gray,2.0,4.0,2.0,13.350434782678613,"[14.255000016419217,13.334999996004626,13.374999980442226,13.254999998025596,13.335000025108457,13.404999976046383,13.235000020358711,13.374999980442226,13.350000022910535,13.399999996181577,13.37000000057742,13.279999984661117,13.345000013941899,13.264999986859038,16.475000011269003,10.59499999973923,12.950000003911555,13.464999996358529,13.424999982817098,13.070000015432015,13.479999994160607,13.234999991254881,13.310000009369105,13.425000011920929,13.229999982286245,13.380000018514693,13.379999989410862,13.344999984838068,13.360000011743978,13.310000009369105,13.334999996004626,13.405000005150214,13.435000000754371,13.234999991254881,14.280000003054738,12.564999982714653,13.150000013411045,13.245000009192154,13.420000002952293,13.324999978067353,13.300000020535663,13.40999998501502,13.29000000259839,16.434999997727573,10.260000010021031,13.309999980265275,13.225000002421439,13.440000009723008,13.390000007348135,13.309999980265275,13.325000007171184,13.33000001613982,13.269999995827675,13.435000000754371,13.32999998703599,13.360000011743978,13.37000000057742,13.349999993806705,13.280000013764948,13.219999993452802,13.470000005327165,13.284999993629754,13.344999984838068,13.360000011743978,13.254999998025596,13.399999996181577,13.414999993983656,13.200000015785918,13.399999996181577]",69.0,960.0,468.5,False,20.0,20.0,black,1.0,True,2.0,"45,-45",black,1920.0,937.0,,
34,html-keyboard-response,34,126372,0.0-14.6-1.6,,<h2 style='background: white;padding: 10px;'> <font color='green'>Correct! </font> </h2>,,,,,,,,,,,,,,,,,,,,,,,,,,,,,,,,,,,,,,,,,
35,RDK,35,127393,0.0-14.7-0.7,1019.9199999915436,,80.0,,False,"k,p",k,-1.0,True,2.0,100.0,1.0,"90,90","0.2,0",0.0,2.0,7.0,2.0,140.0,550.0,"white,black",gray,2.0,4.0,2.0,13.237960526327553,"[6.2000000034458935,13.0899999930989,13.440000009723008,13.084999984130263,13.384999998379499,13.380000018514693,13.124999997671694,13.500000000931323,13.374999980442226,17.045000015059486,9.599999990314245,13.315000018337741,13.399999996181577,13.264999986859038,13.414999993983656,13.325000007171184,13.240000000223517,13.470000005327165,13.284999993629754,13.340000004973263,13.280000013764948,13.404999976046383,13.225000002421439,13.430000020889565,13.349999993806705,13.184999988880008,13.455000007525086,13.390000007348135,13.179999979911372,13.405000005150214,13.349999993806705,13.254999998025596,13.510000018868595,13.32999998703599,13.240000000223517,13.375000009546056,13.355000002775341,13.420000002952293,13.149999984307215,13.360000011743978,13.399999996181577,13.375000009546056,13.435000000754371,13.16999999107793,13.444999989587814,13.280000013764948,13.240000000223517,13.474999985191971,13.204999995650724,16.645000025164336,10.13999999850057,13.32999998703599,13.314999989233911,13.425000011920929,13.275000004796311,13.24999998905696,13.375000009546056,13.310000009369105,13.414999993983656,13.414999993983656,13.225000002421439,13.284999993629754,13.395000016316772,13.294999982463196,13.37000000057742,13.384999998379499,13.265000015962869,13.379999989410862,13.41000001411885,13.429999991785735,13.13000000664033,13.339999975869432,13.400000025285408,13.279999984661117,13.544999994337559,13.100000011036173]",76.0,960.0,468.5,False,20.0,20.0,black,1.0,True,2.0,"45,-45",black,1920.0,937.0,,
36,html-keyboard-response,36,127946,0.0-14.7-1.7,,<h2 style='background: white;padding: 10px;'> <font color='red'> Wrong. </font>  </h2>,,,,,,,,,,,,,,,,,,,,,,,,,,,,,,,,,,,,,,,,,
37,RDK,37,129302,0.0-14.8-0.8,1355.2799999888518,,75.0,,False,"k,p",p,-1.0,True,2.0,100.0,1.0,"-90,-90","0,0.05",0.0,2.0,7.0,2.0,140.0,550.0,"black,white",gray,2.0,4.0,2.0,13.263480392268713,"[5.675000022165477,13.379999989410862,13.199999986682087,13.375000009546056,13.360000011743978,13.284999993629754,13.284999993629754,13.635000010253862,13.0899999930989,13.319999998202547,13.299999991431832,13.405000005150214,13.260000006994233,13.455000007525086,13.264999986859038,13.284999993629754,13.365000020712614,13.40999998501502,13.395000016316772,13.294999982463196,13.275000004796311,13.390000007348135,13.294999982463196,13.425000011920929,13.355000002775341,13.364999991608784,13.284999993629754,13.355000002775341,13.230000011390075,13.394999987212941,13.390000007348135,13.165000011213124,13.600000005681068,13.244999980088323,13.345000013941899,13.325000007171184,13.384999998379499,13.184999988880008,13.399999996181577,13.360000011743978,13.225000002421439,13.389999978244305,13.325000007171184,13.375000009546056,13.260000006994233,13.414999993983656,13.340000004973263,13.279999984661117,13.52999999653548,13.235000020358711,13.32999998703599,13.284999993629754,13.310000009369105,13.464999996358529,13.245000009192154,13.384999998379499,13.269999995827675,13.375000009546056,13.384999998379499,13.359999982640147,13.240000000223517,13.349999993806705,13.430000020889565,13.24999998905696,13.355000002775341,13.349999993806705,13.265000015962869,13.379999989410862,13.325000007171184,13.355000002775341,13.464999996358529,13.279999984661117,13.265000015962869,13.435000000754371,13.349999993806705,13.284999993629754,13.240000000223517,13.405000005150214,13.24999998905696,13.395000016316772,13.40999998501502,13.230000011390075,13.494999991962686,13.240000000223517,13.600000005681068,13.225000002421439,13.149999984307215,13.320000027306378,13.389999978244305,13.355000002775341,13.33000001613982,13.305000000400469,13.344999984838068,13.384999998379499,13.219999993452802,13.41000001411885,13.394999987212941,13.335000025108457,13.269999995827675,13.429999991785735,13.355000002775341,13.414999993983656]",102.0,960.0,468.5,False,20.0,20.0,black,1.0,True,2.0,"45,-45",black,1920.0,937.0,,
38,html-keyboard-response,38,129855,0.0-14.8-1.8,,<h2 style='background: white;padding: 10px;'> <font color='red'> Wrong. </font>  </h2>,,,,,,,,,,,,,,,,,,,,,,,,,,,,,,,,,,,,,,,,,
39,RDK,39,131767,0.0-14.9-0.9,1910.8850000193345,,75.0,,True,"k,p",k,-1.0,True,2.0,100.0,1.0,"90,90","0.2,0",0.0,2.0,7.0,2.0,140.0,550.0,"white,black",gray,2.0,4.0,2.0,13.275804195733793,"[4.654999997001141,13.340000004973263,13.254999998025596,13.340000004973263,13.299999991431832,13.390000007348135,13.229999982286245,13.33000001613982,13.349999993806705,13.440000009723008,13.229999982286245,13.300000020535663,13.40999998501502,13.375000009546056,16.44000000669621,10.119999991729856,13.349999993806705,13.44999999855645,13.325000007171184,13.375000009546056,13.334999996004626,13.264999986859038,13.414999993983656,13.384999998379499,13.125000026775524,13.504999980796129,13.240000000223517,17.060000012861565,9.679999988293275,13.325000007171184,13.32999998703599,13.33000001613982,13.334999996004626,13.455000007525086,13.225000002421439,13.355000002775341,13.254999998025596,13.279999984661117,13.455000007525086,13.29000000259839,13.470000005327165,13.309999980265275,13.280000013764948,13.424999982817098,13.275000004796311,13.265000015962869,13.314999989233911,13.360000011743978,13.29000000259839,13.394999987212941,13.319999998202547,13.364999991608784,13.300000020535663,13.355000002775341,13.294999982463196,13.44999999855645,13.245000009192154,13.319999998202547,13.394999987212941,13.575000019045547,13.004999986151233,13.479999994160607,13.260000006994233,13.29000000259839,13.44999999855645,13.334999996004626,13.345000013941899,13.264999986859038,13.414999993983656,13.205000024754554,13.389999978244305,13.305000000400469,13.430000020889565,13.374999980442226,13.360000011743978,13.24999998905696,13.41000001411885,13.279999984661117,13.300000020535663,13.324999978067353,13.305000000400469,13.420000002952293,13.275000004796311,13.305000000400469,13.355000002775341,13.459999987389892,13.315000018337741,13.260000006994233,13.419999973848462,13.245000009192154,13.440000009723008,13.240000000223517,13.479999994160607,13.299999991431832,13.384999998379499,13.245000009192154,13.349999993806705,13.384999998379499,13.240000000223517,13.334999996004626,13.325000007171184,13.395000016316772,13.379999989410862,13.260000006994233,13.32999998703599,13.414999993983656,13.260000006994233,13.615000003483146,13.059999997494742,13.425000011920929,13.324999978067353,13.395000016316772,13.279999984661117,13.345000013941899,13.284999993629754,13.520000007702038,13.139999995473772,13.340000004973263,13.340000004973263,13.364999991608784,13.219999993452802,13.475000014295802,13.244999980088323,13.365000020712614,13.424999982817098,13.319999998202547,13.334999996004626,13.345000013941899,13.32999998703599,13.295000011567026,13.355000002775341,13.344999984838068,13.275000004796311,13.384999998379499,13.265000015962869,13.379999989410862,13.345000013941899,13.319999998202547,13.309999980265275,13.475000014295802,13.24999998905696,13.319999998202547,13.37000000057742]",143.0,960.0,468.5,False,20.0,20.0,black,1.0,True,2.0,"45,-45",black,1920.0,937.0,,
40,html-keyboard-response,40,132320,0.0-14.9-1.9,,<h2 style='background: white;padding: 10px;'> <font color='green'>Correct! </font> </h2>,,,,,,,,,,,,,,,,,,,,,,,,,,,,,,,,,,,,,,,,,
41,RDK,41,134454,0.0-14.10-0.10,2133.475000009639,,80.0,,True,"k,p",p,-1.0,True,2.0,100.0,1.0,"-90,-90","0,0.4",0.0,2.0,7.0,2.0,140.0,550.0,"black,white",gray,2.0,4.0,2.0,13.297500000044238,"[7.170000026235357,13.264999986859038,13.24999998905696,13.295000011567026,13.425000011920929,13.439999980619177,13.185000017983839,13.339999975869432,13.215000013587996,13.479999994160607,13.33000001613982,13.244999980088323,13.425000011920929,13.344999984838068,13.240000000223517,13.405000005150214,13.345000013941899,13.37000000057742,13.314999989233911,13.269999995827675,13.310000009369105,13.44999999855645,13.349999993806705,13.215000013587996,13.485000003129244,13.37000000057742,13.179999979911372,13.395000016316772,13.344999984838068,13.225000002421439,13.464999996358529,13.420000002952293,13.175000000046566,13.29000000259839,13.399999996181577,13.325000007171184,16.494999988935888,13.25000001816079,13.319999998202547,14.52999998582527,10.340000008000061,12.069999997038394,13.379999989410862,13.205000024754554,13.414999993983656,13.509999989764765,13.429999991785735,13.095000002067536,13.520000007702038,13.139999995473772,13.430000020889565,13.299999991431832,13.390000007348135,13.229999982286245,13.355000002775341,13.37000000057742,13.420000002952293,13.245000009192154,13.344999984838068,13.364999991608784,13.305000000400469,13.305000000400469,13.425000011920929,13.394999987212941,13.345000013941899,13.29000000259839,13.340000004973263,13.414999993983656,13.310000009369105,13.214999984484166,13.319999998202547,13.284999993629754,13.384999998379499,13.305000000400469,13.350000022910535,13.324999978067353,13.33000001613982,13.334999996004626,13.390000007348135,13.225000002421439,16.66500000283122,10.244999983115122,13.234999991254881,13.300000020535663,13.379999989410862,13.225000002421439,13.414999993983656,13.395000016316772,13.284999993629754,13.360000011743978,13.319999998202547,13.309999980265275,13.315000018337741,13.384999998379499,13.314999989233911,13.299999991431832,13.49000001209788,13.349999993806705,13.240000000223517,13.37000000057742,13.379999989410862,13.38500002748333,13.175000000046566,13.284999993629754,13.500000000931323,13.234999991254881,13.325000007171184,13.394999987212941,13.300000020535663,13.389999978244305,13.380000018514693,13.254999998025596,13.299999991431832,13.459999987389892,13.25000001816079,13.379999989410862,13.37000000057742,13.275000004796311,13.360000011743978,13.44999999855645,13.309999980265275,13.319999998202547,13.310000009369105,13.325000007171184,16.455000004498288,13.299999991431832,10.290000005625188,13.314999989233911,13.310000009369105,13.284999993629754,13.390000007348135,13.340000004973263,13.334999996004626,13.364999991608784,13.334999996004626,13.269999995827675,13.445000018691644,13.435000000754371,13.184999988880008,13.425000011920929,13.305000000400469,13.16999999107793,13.544999994337559,13.310000009369105,13.24999998905696,13.325000007171184,16.50500000687316,10.104999993927777,13.509999989764765,13.340000004973263,13.234999991254881,13.305000000400469,13.435000000754371,13.269999995827675,13.360000011743978,13.384999998379499,13.414999993983656,13.145000004442409,13.444999989587814,13.245000009192154]",160.0,960.0,468.5,False,20.0,20.0,black,1.0,True,2.0,"45,-45",black,1920.0,937.0,,
42,html-keyboard-response,42,135007,0.0-14.10-1.10,,<h2 style='background: white;padding: 10px;'> <font color='green'>Correct! </font> </h2>,,,,,,,,,,,,,,,,,,,,,,,,,,,,,,,,,,,,,,,,,
43,RDK,43,136704,0.0-14.11-0.11,1696.6899999824816,,75.0,,True,"k,p",k,-1.0,True,2.0,100.0,1.0,"90,90","0.2,0",0.0,2.0,7.0,2.0,140.0,550.0,"white,black",gray,2.0,4.0,2.0,13.341102362280404,"[14.075000013690442,13.379999989410862,13.204999995650724,13.225000002421439,16.379999986384064,14.215000002877787,9.530000010272488,13.134999986505136,13.395000016316772,13.314999989233911,13.455000007525086,13.234999991254881,13.310000009369105,13.394999987212941,13.430000020889565,13.199999986682087,13.435000000754371,13.364999991608784,13.400000025285408,13.099999981932342,13.440000009723008,13.334999996004626,13.314999989233911,13.280000013764948,13.344999984838068,13.390000007348135,13.340000004973263,13.345000013941899,13.284999993629754,13.379999989410862,13.514999998733401,13.135000015608966,13.32999998703599,13.33000001613982,13.359999982640147,13.399999996181577,13.345000013941899,13.314999989233911,13.269999995827675,13.485000003129244,13.175000000046566,13.360000011743978,13.429999991785735,16.254999994998798,10.284999996656552,13.415000023087487,13.40999998501502,13.29000000259839,13.364999991608784,13.345000013941899,13.284999993629754,13.379999989410862,13.240000000223517,13.300000020535663,13.349999993806705,13.435000000754371,13.310000009369105,13.319999998202547,13.349999993806705,13.269999995827675,13.360000011743978,13.40999998501502,13.310000009369105,13.37000000057742,13.309999980265275,13.435000000754371,13.390000007348135,13.145000004442409,13.474999985191971,13.260000006994233,13.455000007525086,13.16999999107793,13.470000005327165,13.184999988880008,13.320000027306378,13.504999980796129,13.37000000057742,13.275000004796311,13.240000000223517,13.349999993806705,13.460000016493723,13.199999986682087,13.429999991785735,13.310000009369105,16.254999994998798,10.494999994989485,13.319999998202547,13.41000001411885,13.479999994160607,13.160000002244487,13.260000006994233,13.29000000259839,13.384999998379499,13.359999982640147,13.375000009546056,13.269999995827675,13.25000001816079,13.479999994160607,13.225000002421439,13.40999998501502,13.260000006994233,13.29000000259839,13.479999994160607,13.204999995650724,13.44999999855645,13.380000018514693,13.359999982640147,13.235000020358711,13.374999980442226,13.349999993806705,13.265000015962869,13.310000009369105,13.349999993806705,13.32999998703599,13.365000020712614,13.294999982463196,13.445000018691644,13.254999998025596,13.334999996004626,13.414999993983656,13.24999998905696,13.319999998202547,13.395000016316772,13.244999980088323,13.575000019045547,13.21000000461936,13.254999998025596]",127.0,960.0,468.5,False,20.0,20.0,black,1.0,True,2.0,"45,-45",black,1920.0,937.0,,
44,html-keyboard-response,44,137257,0.0-14.11-1.11,,<h2 style='background: white;padding: 10px;'> <font color='green'>Correct! </font> </h2>,,,,,,,,,,,,,,,,,,,,,,,,,,,,,,,,,,,,,,,,,
45,RDK,45,138604,0.0-14.12-0.12,1346.924999990733,,75.0,,True,"k,p",k,-1.0,True,2.0,100.0,1.0,"90,90","0.2,0",0.0,2.0,7.0,2.0,140.0,550.0,"white,black",gray,2.0,4.0,2.0,13.255841584269898,"[5.250000016530976,13.439999980619177,13.21000000461936,13.225000002421439,13.315000018337741,13.254999998025596,13.389999978244305,13.270000024931505,13.334999996004626,13.429999991785735,13.260000006994233,13.379999989410862,16.54499999131076,10.160000005271286,13.41000001411885,13.299999991431832,13.225000002421439,13.429999991785735,13.414999993983656,13.235000020358711,16.474999982165173,13.295000011567026,10.325000010197982,13.279999984661117,13.24999998905696,13.460000016493723,13.240000000223517,16.410000011092052,13.339999975869432,13.360000011743978,13.305000000400469,10.305000003427267,13.470000005327165,13.24999998905696,13.275000004796311,13.424999982817098,13.319999998202547,13.38500002748333,13.309999980265275,13.269999995827675,13.380000018514693,13.379999989410862,13.180000009015203,13.504999980796129,13.240000000223517,13.400000025285408,13.37000000057742,13.159999973140657,13.45000002766028,13.429999991785735,13.175000000046566,13.435000000754371,13.294999982463196,13.265000015962869,13.399999996181577,13.334999996004626,13.284999993629754,13.380000018514693,13.299999991431832,13.325000007171184,13.420000002952293,13.344999984838068,13.25000001816079,13.404999976046383,13.420000002952293,13.195000006817281,13.299999991431832,13.340000004973263,13.455000007525086,13.314999989233911,13.204999995650724,13.475000014295802,13.44999999855645,13.379999989410862,13.185000017983839,13.364999991608784,13.314999989233911,13.415000023087487,16.39999999315478,10.214999987510964,13.334999996004626,13.355000002775341,16.254999994998798,10.350000025937334,13.414999993983656,13.394999987212941,13.150000013411045,13.299999991431832,13.524999987566844,13.350000022910535,13.189999997848645,13.459999987389892,13.310000009369105,13.24999998905696,13.340000004973263,13.440000009723008,13.229999982286245,13.334999996004626,16.690000018570572,10.030000004917383,13.364999991608784]",101.0,960.0,468.5,False,20.0,20.0,black,1.0,True,2.0,"45,-45",black,1920.0,937.0,,
46,html-keyboard-response,46,139156,0.0-14.12-1.12,,<h2 style='background: white;padding: 10px;'> <font color='green'>Correct! </font> </h2>,,,,,,,,,,,,,,,,,,,,,,,,,,,,,,,,,,,,,,,,,
47,RDK,47,141544,0.0-14.13-0.13,2386.7800000007264,,75.0,,True,"k,p",k,-1.0,True,2.0,100.0,1.0,"90,90","0.1,0",0.0,2.0,7.0,2.0,140.0,550.0,"white,black",gray,2.0,4.0,2.0,13.40159090911832,"[11.700000002747402,12.900000001536682,13.405000005150214,13.27499997569248,13.325000007171184,13.275000004796311,13.32999998703599,13.380000018514693,13.275000004796311,13.374999980442226,13.405000005150214,16.380000015487894,10.31499999226071,13.279999984661117,13.380000018514693,13.379999989410862,13.340000004973263,24.42999999038875,15.530000004218891,13.375000009546056,13.254999998025596,13.420000002952293,13.29000000259839,13.32999998703599,13.275000004796311,13.394999987212941,13.350000022910535,13.414999993983656,13.225000002421439,16.34499998181127,13.300000020535663,13.379999989410862,12.745000014547259,10.889999975915998,13.460000016493723,13.214999984484166,13.460000016493723,13.334999996004626,13.269999995827675,13.334999996004626,13.405000005150214,13.340000004973263,13.260000006994233,13.279999984661117,13.435000000754371,13.399999996181577,13.315000018337741,13.27499997569248,13.38500002748333,13.324999978067353,13.285000022733584,13.384999998379499,13.394999987212941,13.219999993452802,13.340000004973263,13.420000002952293,13.279999984661117,13.310000009369105,13.364999991608784,13.25000001816079,13.394999987212941,13.440000009723008,13.279999984661117,13.355000002775341,13.375000009546056,13.275000004796311,13.29000000259839,13.349999993806705,13.305000000400469,13.280000013764948,13.414999993983656,13.439999980619177,13.245000009192154,13.444999989587814,13.305000000400469,13.180000009015203,13.52999999653548,13.284999993629754,13.295000011567026,13.349999993806705,13.365000020712614,13.309999980265275,13.405000005150214,13.295000011567026,13.339999975869432,13.33000001613982,13.379999989410862,13.355000002775341,13.219999993452802,13.44999999855645,13.345000013941899,13.234999991254881,13.399999996181577,13.395000016316772,13.29000000259839,13.374999980442226,13.53000002563931,13.039999990724027,13.420000002952293,13.37000000057742,13.254999998025596,13.405000005150214,13.254999998025596,13.324999978067353,13.41000001411885,13.379999989410862,13.204999995650724,13.45000002766028,13.269999995827675,13.355000002775341,13.334999996004626,13.344999984838068,13.215000013587996,13.485000003129244,13.394999987212941,13.154999993275851,13.470000005327165,13.25000001816079,13.279999984661117,13.41000001411885,13.284999993629754,13.424999982817098,13.37000000057742,13.254999998025596,13.390000007348135,13.299999991431832,13.390000007348135,13.230000011390075,13.44999999855645,13.314999989233911,13.305000000400469,13.334999996004626,13.375000009546056,13.299999991431832,13.375000009546056,14.280000003054738,12.31499999994412,13.444999989587814,13.475000014295802,13.044999999692664,13.509999989764765,13.360000011743978,13.204999995650724,13.364999991608784,13.414999993983656,13.220000022556633,13.379999989410862,13.394999987212941,13.335000025108457,13.579999998910353,13.16999999107793,13.284999993629754,13.349999993806705,13.310000009369105,13.225000002421439,13.390000007348135,13.414999993983656,13.275000004796311,13.324999978067353,13.29000000259839,13.49000001209788,13.32999998703599,13.245000009192154,13.345000013941899,13.404999976046383,13.350000022910535,13.229999982286245,13.284999993629754,13.335000025108457,13.414999993983656,13.260000006994233,13.32999998703599,13.32999998703599,13.345000013941899,13.32999998703599,13.445000018691644]",176.0,960.0,468.5,False,20.0,20.0,black,1.0,True,2.0,"45,-45",black,1920.0,937.0,,
48,html-keyboard-response,48,142097,0.0-14.13-1.13,,<h2 style='background: white;padding: 10px;'> <font color='green'>Correct! </font> </h2>,,,,,,,,,,,,,,,,,,,,,,,,,,,,,,,,,,,,,,,,,
49,RDK,49,143928,0.0-14.14-0.14,1830.0799999851733,,75.0,,True,"k,p",k,-1.0,True,2.0,100.0,1.0,"90,90","0.4,0",0.0,2.0,7.0,2.0,140.0,550.0,"white,black",gray,2.0,4.0,2.0,13.284562043862648,"[6.3900000241119415,13.044999999692664,13.344999984838068,13.340000004973263,13.420000002952293,13.310000009369105,13.429999991785735,13.095000002067536,13.414999993983656,13.345000013941899,13.305000000400469,13.314999989233911,13.384999998379499,13.340000004973263,13.264999986859038,13.380000018514693,13.324999978067353,13.560000021243468,13.309999980265275,13.305000000400469,13.240000000223517,13.260000006994233,13.394999987212941,13.270000024931505,13.344999984838068,13.379999989410862,13.445000018691644,13.29000000259839,13.349999993806705,13.299999991431832,13.295000011567026,13.440000009723008,13.24999998905696,13.414999993983656,13.41000001411885,13.119999988703057,13.425000011920929,13.399999996181577,13.244999980088323,13.360000011743978,13.360000011743978,13.364999991608784,13.394999987212941,13.195000006817281,13.464999996358529,13.240000000223517,13.414999993983656,13.61000002361834,13.074999995296821,13.225000002421439,13.379999989410862,13.379999989410862,13.275000004796311,13.500000000931323,13.195000006817281,13.340000004973263,13.414999993983656,13.254999998025596,13.219999993452802,13.415000023087487,13.37000000057742,13.314999989233911,13.500000000931323,13.180000009015203,13.389999978244305,13.505000009899959,13.16999999107793,13.269999995827675,13.435000000754371,13.37000000057742,13.254999998025596,13.405000005150214,16.490000009071082,10.03499998478219,13.400000025285408,13.444999989587814,13.149999984307215,13.57000001007691,13.269999995827675,13.405000005150214,13.219999993452802,13.430000020889565,13.204999995650724,13.405000005150214,13.324999978067353,13.260000006994233,13.379999989410862,13.37000000057742,13.320000027306378,13.309999980265275,13.37000000057742,13.425000011920929,13.21000000461936,13.479999994160607,13.269999995827675,13.275000004796311,13.439999980619177,13.220000022556633,13.299999991431832,13.455000007525086,13.355000002775341,13.389999978244305,13.275000004796311,13.189999997848645,13.395000016316772,13.40999998501502,13.455000007525086,13.254999998025596,13.334999996004626,13.234999991254881,13.405000005150214,13.365000020712614,13.254999998025596,13.314999989233911,13.32999998703599,13.470000005327165,13.500000000931323,13.044999999692664,13.345000013941899,13.305000000400469,13.470000005327165,13.269999995827675,13.40999998501502,13.29000000259839,13.269999995827675,13.460000016493723,13.644999999087304,13.059999997494742,13.204999995650724,13.41000001411885,13.364999991608784,13.234999991254881,13.345000013941899,13.420000002952293,13.244999980088323,13.479999994160607,13.195000006817281]",137.0,960.0,468.5,False,20.0,20.0,black,1.0,True,2.0,"45,-45",black,1920.0,937.0,,
50,html-keyboard-response,50,144480,0.0-14.14-1.14,,<h2 style='background: white;padding: 10px;'> <font color='green'>Correct! </font> </h2>,,,,,,,,,,,,,,,,,,,,,,,,,,,,,,,,,,,,,,,,,
51,RDK,51,145567,0.0-14.15-0.15,1086.6249999962747,,75.0,,True,"k,p",k,-1.0,True,2.0,100.0,1.0,"90,90","0.1,0",0.0,2.0,7.0,2.0,140.0,550.0,"white,black",gray,2.0,4.0,2.0,13.3059876543372,"[11.009999987436458,13.139999995473772,13.220000022556633,13.420000002952293,13.399999996181577,13.364999991608784,13.295000011567026,13.35499997367151,13.21000000461936,13.460000016493723,13.294999982463196,13.29000000259839,13.41000001411885,13.374999980442226,13.270000024931505,13.349999993806705,13.374999980442226,16.845000005559996,9.850000002188608,13.345000013941899,13.259999977890402,13.325000007171184,16.419999999925494,10.19500000984408,13.360000011743978,13.384999998379499,13.44999999855645,13.179999979911372,16.390000004321337,10.364999994635582,13.269999995827675,13.320000027306378,13.404999976046383,13.380000018514693,13.319999998202547,13.405000005150214,13.305000000400469,13.344999984838068,13.240000000223517,13.345000013941899,13.384999998379499,13.374999980442226,13.225000002421439,13.49000001209788,13.229999982286245,16.445000015664846,10.524999990593642,13.074999995296821,13.310000009369105,13.49000001209788,13.189999997848645,13.364999991608784,13.455000007525086,13.240000000223517,13.24999998905696,13.349999993806705,13.425000011920929,13.29000000259839,13.420000002952293,13.275000004796311,13.309999980265275,13.44999999855645,13.150000013411045,13.40999998501502,13.395000016316772,13.219999993452802,13.295000011567026,13.435000000754371,13.264999986859038,13.37000000057742,13.364999991608784,13.275000004796311,13.440000009723008,13.284999993629754,13.33000001613982,13.389999978244305,13.204999995650724,13.384999998379499,13.360000011743978,13.384999998379499,13.310000009369105]",81.0,960.0,468.5,False,20.0,20.0,black,1.0,True,2.0,"45,-45",black,1920.0,937.0,,
52,html-keyboard-response,52,146119,0.0-14.15-1.15,,<h2 style='background: white;padding: 10px;'> <font color='green'>Correct! </font> </h2>,,,,,,,,,,,,,,,,,,,,,,,,,,,,,,,,,,,,,,,,,
53,RDK,53,147082,0.0-14.16-0.16,962.0450000220444,,75.0,,True,"k,p",k,-1.0,True,2.0,100.0,1.0,"90,90","0.05,0",0.0,2.0,7.0,2.0,140.0,550.0,"white,black",gray,2.0,4.0,2.0,13.32097222216867,"[12.125000008381903,13.505000009899959,13.419999973848462,13.005000015255064,13.429999991785735,13.395000016316772,13.219999993452802,13.325000007171184,13.389999978244305,13.270000024931505,13.394999987212941,13.355000002775341,13.364999991608784,13.435000000754371,13.095000002067536,13.420000002952293,13.394999987212941,13.21000000461936,13.420000002952293,15.604999993229285,11.090000014519319,13.325000007171184,13.27499997569248,13.405000005150214,13.275000004796311,13.475000014295802,13.504999980796129,13.074999995296821,13.240000000223517,13.41000001411885,13.394999987212941,13.335000025108457,13.384999998379499,13.359999982640147,13.275000004796311,13.349999993806705,13.269999995827675,16.419999999925494,10.620000015478581,12.935000006109476,13.389999978244305,13.365000020712614,13.29000000259839,13.319999998202547,13.429999991785735,13.334999996004626,13.254999998025596,13.380000018514693,13.27499997569248,13.360000011743978,13.414999993983656,13.180000009015203,13.44999999855645,13.364999991608784,13.390000007348135,13.279999984661117,13.37000000057742,13.395000016316772,13.16999999107793,13.425000011920929,13.21000000461936,13.379999989410862,13.384999998379499,13.314999989233911,13.295000011567026,13.420000002952293,13.245000009192154,13.37000000057742,13.44999999855645,13.27499997569248,13.41000001411885,13.314999989233911]",72.0,960.0,468.5,False,20.0,20.0,black,1.0,True,2.0,"45,-45",black,1920.0,937.0,,
54,html-keyboard-response,54,147634,0.0-14.16-1.16,,<h2 style='background: white;padding: 10px;'> <font color='green'>Correct! </font> </h2>,,,,,,,,,,,,,,,,,,,,,,,,,,,,,,,,,,,,,,,,,
55,html-keyboard-response,55,161194,0.0-15.0,13560.0,"<div style='background: #d3d3d3;padding: 20px;'><p>Great! You are ready to start <b>PART 1</b>.</p><p>There is time limit of <b>4 seconds</b> per trial. If you exceed this time, your answer is considered wrong.</p><p>Remember to watch only WHITE dots.</p> <p><i>Please note that your responses in this part will be checked by an automated script. If the accuracy of your response did not reach a pre-defined level, we could not continue the rest of the experiment, and you will be redirected to Prolific website.</i></p><br/> Press <b>SPACE</b> to continue.</div>",32.0,,,,,,,,,,,,,,,,,,,,,,,,,,,,,,,,,,,,,,,,
56,html-keyboard-response,56,161797,0.0-16.0-0.0,,<font color='grey'>coh1</font>,,,,,,,,,,,,,,,,,,,,,,,,,,,,,,,,,,,,,,,,,
57,html-keyboard-response,57,162048,0.0-16.0-1.0,,"<div style=""font-size:60px;"">+</div>",,,,,,,,,,,,,,,,,,,,,,,,,,,,,,,,,,,,,,,,,
58,RDK,58,163911,0.0-16.0-2.0,1862.0949999894947,,80.0,,True,"k,p",p,4000.0,True,2.0,100.0,1.0,"-90,-90","0.31622776601683794,0",0.0,2.0,7.0,2.0,140.0,550.0,"white,black",gray,2.0,4.0,2.0,13.302410072094274,"[8.590000012191013,13.349999993806705,13.180000009015203,13.37000000057742,13.32999998703599,13.230000011390075,13.260000006994233,13.435000000754371,13.309999980265275,13.345000013941899,13.374999980442226,13.235000020358711,13.414999993983656,13.340000004973263,13.344999984838068,13.355000002775341,13.380000018514693,13.309999980265275,13.180000009015203,13.500000000931323,13.165000011213124,13.474999985191971,13.319999998202547,13.280000013764948,13.420000002952293,13.414999993983656,13.269999995827675,13.275000004796311,13.24999998905696,13.535000005504116,13.254999998025596,13.295000011567026,13.424999982817098,13.310000009369105,13.24999998905696,13.440000009723008,13.375000009546056,13.244999980088323,13.399999996181577,13.29000000259839,13.41000001411885,13.309999980265275,13.220000022556633,13.454999978421256,13.254999998025596,13.295000011567026,13.494999991962686,16.950000019278377,9.694999986095354,13.340000004973263,13.245000009192154,13.389999978244305,13.285000022733584,13.279999984661117,13.375000009546056,13.524999987566844,13.240000000223517,13.325000007171184,13.459999987389892,13.320000027306378,13.19499997771345,13.384999998379499,13.235000020358711,13.334999996004626,13.48999998299405,13.21000000461936,13.319999998202547,13.41000001411885,13.234999991254881,13.479999994160607,13.285000022733584,13.184999988880008,13.420000002952293,13.509999989764765,13.254999998025596,13.245000009192154,13.420000002952293,13.254999998025596,13.40999998501502,13.525000016670674,13.334999996004626,13.684999983524904,13.020000013057142,13.135000015608966,13.24999998905696,13.405000005150214,13.394999987212941,13.284999993629754,13.485000003129244,13.175000000046566,13.33000001613982,13.374999980442226,13.415000023087487,13.294999982463196,13.254999998025596,13.440000009723008,13.269999995827675,13.395000016316772,13.264999986859038,16.485000000102445,10.284999996656552,13.189999997848645,13.37000000057742,13.295000011567026,13.399999996181577,13.379999989410862,13.284999993629754,13.405000005150214,13.33000001613982,13.234999991254881,13.440000009723008,13.479999994160607,13.115000008838251,13.44999999855645,13.364999991608784,13.379999989410862,13.29000000259839,13.334999996004626,13.25000001816079,13.309999980265275,13.300000020535663,13.404999976046383,13.320000027306378,13.37000000057742,13.244999980088323,13.414999993983656,13.345000013941899,13.420000002952293,13.355000002775341,13.254999998025596,13.420000002952293,13.275000004796311,13.299999991431832,13.355000002775341,13.384999998379499,13.260000006994233,13.374999980442226,13.345000013941899,13.405000005150214]",139.0,960.0,468.5,False,20.0,20.0,black,1.0,True,2.0,"45,-45",black,1920.0,937.0,,
59,html-keyboard-response,59,164462,0.0-16.0-3.0,,<h2 style='background: white;padding: 10px;'> <font color='green'>Correct! </font> </h2>,,,,,,,,,,,,,,,,,,,,,,,,,,,,,,,,,,,,,,,,,
60,html-keyboard-response,60,164964,0.0-16.1-0.1,,<font color='grey'>coh2</font>,,,,,,,,,,,,,,,,,,,,,,,,,,,,,,,,,,,,,,,,,
61,html-keyboard-response,61,165214,0.0-16.1-1.1,,"<div style=""font-size:60px;"">+</div>",,,,,,,,,,,,,,,,,,,,,,,,,,,,,,,,,,,,,,,,,
62,RDK,62,166347,0.0-16.1-2.1,1132.1900000039022,,75.0,,True,"k,p",k,4000.0,True,2.0,100.0,1.0,"90,90","0.31622776601683794,0",0.0,2.0,7.0,2.0,140.0,550.0,"white,black",gray,2.0,4.0,2.0,13.373035714418313,"[16.36000000871718,13.355000002775341,13.264999986859038,13.380000018514693,13.390000007348135,13.284999993629754,13.240000000223517,13.414999993983656,13.29000000259839,13.325000007171184,13.420000002952293,13.424999982817098,13.21000000461936,13.40999998501502,13.345000013941899,13.234999991254881,13.445000018691644,13.420000002952293,13.254999998025596,13.319999998202547,13.319999998202547,13.259999977890402,13.390000007348135,13.384999998379499,13.245000009192154,13.435000000754371,13.384999998379499,13.245000009192154,13.355000002775341,13.344999984838068,13.219999993452802,13.440000009723008,13.360000011743978,13.359999982640147,13.260000006994233,13.219999993452802,13.44999999855645,13.315000018337741,13.439999980619177,13.29000000259839,13.375000009546056,13.229999982286245,13.400000025285408,13.359999982640147,13.245000009192154,13.524999987566844,13.275000004796311,13.215000013587996,13.479999994160607,13.204999995650724,13.37000000057742,13.405000005150214,13.309999980265275,16.370000026654452,10.23499999428168,13.319999998202547,13.340000004973263,13.444999989587814,13.184999988880008,13.470000005327165,13.275000004796311,13.299999991431832,13.670000014826655,13.084999984130263,13.37000000057742,13.245000009192154,13.425000011920929,13.339999975869432,13.240000000223517,13.440000009723008,13.180000009015203,13.464999996358529,13.29000000259839,13.279999984661117,13.29000000259839,13.380000018514693,13.435000000754371,13.225000002421439,13.429999991785735,13.399999996181577,13.214999984484166,13.505000009899959,13.265000015962869,13.314999989233911]",84.0,960.0,468.5,False,20.0,20.0,black,1.0,True,2.0,"45,-45",black,1920.0,937.0,,
63,html-keyboard-response,63,166901,0.0-16.1-3.1,,<h2 style='background: white;padding: 10px;'> <font color='green'>Correct! </font> </h2>,,,,,,,,,,,,,,,,,,,,,,,,,,,,,,,,,,,,,,,,,
64,html-keyboard-response,64,167503,0.0-16.2-0.2,,<font color='grey'>coh1</font>,,,,,,,,,,,,,,,,,,,,,,,,,,,,,,,,,,,,,,,,,
65,html-keyboard-response,65,167754,0.0-16.2-1.2,,"<div style=""font-size:60px;"">+</div>",,,,,,,,,,,,,,,,,,,,,,,,,,,,,,,,,,,,,,,,,
66,RDK,66,169019,0.0-16.2-2.2,1264.2850000120234,,80.0,,True,"k,p",p,4000.0,True,2.0,100.0,1.0,"-90,-90","0,0.31622776601683794",0.0,2.0,7.0,2.0,140.0,550.0,"black,white",gray,2.0,4.0,2.0,13.312553191505511,"[11.15500001469627,13.374999980442226,13.380000018514693,13.269999995827675,13.119999988703057,13.33000001613982,13.520000007702038,13.24999998905696,13.245000009192154,13.479999994160607,13.379999989410862,13.230000011390075,13.374999980442226,13.33000001613982,13.474999985191971,13.230000011390075,13.275000004796311,13.375000009546056,13.324999978067353,13.275000004796311,13.420000002952293,13.234999991254881,13.425000011920929,13.379999989410862,13.41000001411885,13.24999998905696,13.315000018337741,13.264999986859038,13.319999998202547,13.52999999653548,13.284999993629754,13.280000013764948,13.359999982640147,13.300000020535663,13.234999991254881,13.470000005327165,13.260000006994233,13.379999989410862,13.379999989410862,13.37000000057742,13.205000024754554,13.35499997367151,13.425000011920929,13.225000002421439,13.485000003129244,13.32999998703599,13.325000007171184,13.299999991431832,13.350000022910535,13.309999980265275,13.384999998379499,13.29000000259839,13.334999996004626,13.340000004973263,13.485000003129244,13.139999995473772,13.425000011920929,13.309999980265275,13.29000000259839,13.440000009723008,13.425000011920929,13.189999997848645,13.305000000400469,13.485000003129244,13.164999982109293,13.440000009723008,13.349999993806705,13.379999989410862,13.275000004796311,13.414999993983656,13.145000004442409,13.340000004973263,13.470000005327165,13.195000006817281,13.494999991962686,13.245000009192154,13.275000004796311,13.389999978244305,13.33000001613982,13.359999982640147,13.390000007348135,13.475000014295802,13.144999975338578,13.270000024931505,13.509999989764765,13.390000007348135,13.229999982286245,13.380000018514693,13.214999984484166,16.36000000871718,10.31499999226071,13.414999993983656,13.340000004973263,13.254999998025596]",94.0,960.0,468.5,False,20.0,20.0,black,1.0,True,2.0,"45,-45",black,1920.0,937.0,,
67,html-keyboard-response,67,169570,0.0-16.2-3.2,,<h2 style='background: white;padding: 10px;'> <font color='green'>Correct! </font> </h2>,,,,,,,,,,,,,,,,,,,,,,,,,,,,,,,,,,,,,,,,,
68,html-keyboard-response,68,170071,0.0-16.3-0.3,,<font color='grey'>coh2</font>,,,,,,,,,,,,,,,,,,,,,,,,,,,,,,,,,,,,,,,,,
69,html-keyboard-response,69,170322,0.0-16.3-1.3,,"<div style=""font-size:60px;"">+</div>",,,,,,,,,,,,,,,,,,,,,,,,,,,,,,,,,,,,,,,,,
70,RDK,70,171679,0.0-16.3-2.3,1356.5549999766515,,80.0,,True,"k,p",p,4000.0,True,2.0,100.0,1.0,"-90,-90","0,0.31622776601683794",0.0,2.0,7.0,2.0,140.0,550.0,"black,white",gray,2.0,4.0,2.0,13.243431372650187,"[3.855000017210841,13.435000000754371,13.154999993275851,13.555000012274832,13.0899999930989,13.275000004796311,13.519999978598207,13.220000022556633,13.284999993629754,13.349999993806705,13.390000007348135,13.340000004973263,13.37000000057742,13.309999980265275,13.269999995827675,13.44999999855645,13.390000007348135,13.180000009015203,13.349999993806705,13.33000001613982,13.37000000057742,13.349999993806705,13.349999993806705,13.279999984661117,13.440000009723008,13.260000006994233,13.524999987566844,13.225000002421439,13.230000011390075,13.264999986859038,13.470000005327165,13.319999998202547,13.33000001613982,13.294999982463196,13.395000016316772,13.29000000259839,13.294999982463196,13.429999991785735,13.375000009546056,13.240000000223517,13.435000000754371,14.750000002095476,11.820000014267862,13.424999982817098,13.275000004796311,13.314999989233911,13.435000000754371,13.340000004973263,13.254999998025596,13.414999993983656,13.21000000461936,13.380000018514693,13.334999996004626,13.500000000931323,13.259999977890402,13.21000000461936,13.480000023264438,13.319999998202547,13.229999982286245,13.349999993806705,13.774999999441206,12.97000001068227,13.189999997848645,13.505000009899959,13.314999989233911,13.305000000400469,13.455000007525086,13.204999995650724,13.345000013941899,13.44999999855645,13.374999980442226,13.275000004796311,13.275000004796311,13.375000009546056,13.29000000259839,13.269999995827675,13.334999996004626,13.414999993983656,13.375000009546056,13.355000002775341,13.259999977890402,13.415000023087487,13.40999998501502,13.260000006994233,13.24999998905696,13.420000002952293,13.265000015962869,13.364999991608784,13.264999986859038,13.405000005150214,13.299999991431832,13.335000025108457,13.419999973848462,16.419999999925494,10.140000027604401,13.474999985191971,13.305000000400469,13.429999991785735,13.215000013587996,13.474999985191971,13.140000024577603,13.40999998501502]",102.0,960.0,468.5,False,20.0,20.0,black,1.0,True,2.0,"45,-45",black,1920.0,937.0,,
71,html-keyboard-response,71,172232,0.0-16.3-3.3,,<h2 style='background: white;padding: 10px;'> <font color='green'>Correct! </font> </h2>,,,,,,,,,,,,,,,,,,,,,,,,,,,,,,,,,,,,,,,,,
72,html-keyboard-response,72,172833,0.0-16.4-0.4,,<font color='grey'>coh1</font>,,,,,,,,,,,,,,,,,,,,,,,,,,,,,,,,,,,,,,,,,
73,html-keyboard-response,73,173084,0.0-16.4-1.4,,"<div style=""font-size:60px;"">+</div>",,,,,,,,,,,,,,,,,,,,,,,,,,,,,,,,,,,,,,,,,
74,RDK,74,174456,0.0-16.4-2.4,1372.1500000101514,,75.0,,True,"k,p",k,4000.0,True,2.0,100.0,1.0,"90,90","0.19952623149688797,0",0.0,2.0,7.0,2.0,140.0,550.0,"white,black",gray,2.0,4.0,2.0,13.23859223296857,"[3.2350000110454857,13.414999993983656,13.195000006817281,13.339999975869432,13.355000002775341,13.384999998379499,13.340000004973263,13.379999989410862,13.17000002018176,13.244999980088323,13.495000021066517,13.269999995827675,13.405000005150214,13.500000000931323,13.259999977890402,13.190000026952475,13.44999999855645,13.244999980088323,13.37000000057742,16.015000001061708,14.41000000340864,9.569999994710088,13.430000020889565,13.299999991431832,13.305000000400469,13.399999996181577,13.260000006994233,13.399999996181577,13.269999995827675,13.305000000400469,13.345000013941899,13.359999982640147,13.269999995827675,13.41000001411885,13.424999982817098,13.315000018337741,13.214999984484166,13.390000007348135,13.325000007171184,13.319999998202547,13.32999998703599,13.485000003129244,13.340000004973263,13.215000013587996,13.43499997165054,13.33000001613982,13.204999995650724,13.384999998379499,13.375000009546056,13.344999984838068,13.355000002775341,13.310000009369105,13.509999989764765,13.180000009015203,13.29000000259839,13.509999989764765,13.180000009015203,13.334999996004626,13.514999998733401,13.420000002952293,13.095000002067536,13.500000000931323,13.189999997848645,13.459999987389892,13.435000000754371,13.140000024577603,13.374999980442226,13.355000002775341,13.24999998905696,13.37000000057742,13.260000006994233,13.429999991785735,13.405000005150214,13.29000000259839,13.284999993629754,13.345000013941899,13.364999991608784,13.260000006994233,13.494999991962686,13.225000002421439,13.41000001411885,13.254999998025596,13.405000005150214,13.279999984661117,13.269999995827675,13.365000020712614,13.469999976223335,13.375000009546056,13.175000000046566,13.414999993983656,13.360000011743978,13.160000002244487,13.429999991785735,13.29000000259839,13.425000011920929,13.314999989233911,13.37000000057742,13.254999998025596,13.470000005327165,13.225000002421439,13.579999998910353,13.030000001890585,13.379999989410862]",103.0,960.0,468.5,False,20.0,20.0,black,1.0,True,2.0,"45,-45",black,1920.0,937.0,,
75,html-keyboard-response,75,175009,0.0-16.4-3.4,,<h2 style='background: white;padding: 10px;'> <font color='green'>Correct! </font> </h2>,,,,,,,,,,,,,,,,,,,,,,,,,,,,,,,,,,,,,,,,,
76,html-keyboard-response,76,175412,0.0-16.5-0.5,,<font color='grey'>coh2</font>,,,,,,,,,,,,,,,,,,,,,,,,,,,,,,,,,,,,,,,,,
77,html-keyboard-response,77,175662,0.0-16.5-1.5,,"<div style=""font-size:60px;"">+</div>",,,,,,,,,,,,,,,,,,,,,,,,,,,,,,,,,,,,,,,,,
78,RDK,78,176677,0.0-16.5-2.5,1014.4950000103564,,80.0,,True,"k,p",p,4000.0,True,2.0,100.0,1.0,"-90,-90","0.31622776601683794,0",0.0,2.0,7.0,2.0,140.0,550.0,"white,black",gray,2.0,4.0,2.0,13.318092105021751,"[12.014999985694885,13.225000002421439,13.390000007348135,13.324999978067353,13.155000022379681,13.494999991962686,13.279999984661117,13.315000018337741,13.284999993629754,13.41000001411885,13.244999980088323,13.365000020712614,13.37000000057742,13.28999997349456,16.455000004498288,10.290000005625188,13.295000011567026,13.394999987212941,13.269999995827675,13.295000011567026,13.470000005327165,13.349999993806705,13.24999998905696,13.345000013941899,13.299999991431832,13.325000007171184,13.399999996181577,13.41000001411885,13.344999984838068,13.299999991431832,13.340000004973263,13.305000000400469,13.325000007171184,13.40999998501502,13.275000004796311,13.360000011743978,13.37000000057742,13.214999984484166,13.29000000259839,13.37000000057742,13.500000000931323,13.240000000223517,13.300000020535663,13.414999993983656,13.355000002775341,13.305000000400469,13.324999978067353,13.310000009369105,13.264999986859038,13.425000011920929,13.310000009369105,13.394999987212941,13.295000011567026,13.379999989410862,16.36000000871718,10.79500000923872,12.984999979380518,13.280000013764948,13.325000007171184,13.24999998905696,13.390000007348135,13.414999993983656,13.254999998025596,13.355000002775341,13.32999998703599,13.260000006994233,13.310000009369105,13.309999980265275,13.310000009369105,13.444999989587814,13.415000023087487,13.219999993452802,13.32999998703599,13.49000001209788,13.199999986682087,13.405000005150214]",76.0,960.0,468.5,False,20.0,20.0,black,1.0,True,2.0,"45,-45",black,1920.0,937.0,,
79,html-keyboard-response,79,177230,0.0-16.5-3.5,,<h2 style='background: white;padding: 10px;'> <font color='green'>Correct! </font> </h2>,,,,,,,,,,,,,,,,,,,,,,,,,,,,,,,,,,,,,,,,,
80,html-keyboard-response,80,177631,0.0-16.6-0.6,,<font color='grey'>coh1</font>,,,,,,,,,,,,,,,,,,,,,,,,,,,,,,,,,,,,,,,,,
81,html-keyboard-response,81,177882,0.0-16.6-1.6,,"<div style=""font-size:60px;"">+</div>",,,,,,,,,,,,,,,,,,,,,,,,,,,,,,,,,,,,,,,,,
82,RDK,82,178749,0.0-16.6-2.6,866.5650000039022,,75.0,,True,"k,p",k,4000.0,True,2.0,100.0,1.0,"90,90","0,0.19952623149688797",0.0,2.0,7.0,2.0,140.0,550.0,"black,white",gray,2.0,4.0,2.0,13.228692307781715,"[6.374999997206032,13.29000000259839,13.295000011567026,13.240000000223517,13.260000006994233,13.399999996181577,13.299999991431832,13.344999984838068,13.325000007171184,13.355000002775341,13.429999991785735,13.270000024931505,13.28999997349456,13.400000025285408,13.259999977890402,13.310000009369105,13.345000013941899,13.344999984838068,13.399999996181577,13.334999996004626,13.305000000400469,13.355000002775341,13.284999993629754,13.335000025108457,13.539999985368922,13.175000000046566,13.44999999855645,13.265000015962869,13.309999980265275,13.300000020535663,13.379999989410862,13.424999982817098,17.010000010486692,9.554999996908009,13.414999993983656,13.460000016493723,13.134999986505136,13.455000007525086,13.500000000931323,13.184999988880008,13.190000026952475,13.44999999855645,13.319999998202547,13.324999978067353,13.305000000400469,13.415000023087487,13.339999975869432,13.189999997848645,13.440000009723008,13.380000018514693,13.279999984661117,13.384999998379499,13.189999997848645,13.445000018691644,13.399999996181577,13.389999978244305,13.195000006817281,13.405000005150214,13.524999987566844,13.175000000046566,13.345000013941899,13.32999998703599,13.365000020712614,13.305000000400469,13.364999991608784]",65.0,960.0,468.5,False,20.0,20.0,black,1.0,True,2.0,"45,-45",black,1920.0,937.0,,
83,html-keyboard-response,83,179301,0.0-16.6-3.6,,<h2 style='background: white;padding: 10px;'> <font color='green'>Correct! </font> </h2>,,,,,,,,,,,,,,,,,,,,,,,,,,,,,,,,,,,,,,,,,
84,html-keyboard-response,84,179802,0.0-16.7-0.7,,<font color='grey'>coh2</font>,,,,,,,,,,,,,,,,,,,,,,,,,,,,,,,,,,,,,,,,,
85,html-keyboard-response,85,180053,0.0-16.7-1.7,,"<div style=""font-size:60px;"">+</div>",,,,,,,,,,,,,,,,,,,,,,,,,,,,,,,,,,,,,,,,,
86,RDK,86,180932,0.0-16.7-2.7,878.6799999943469,,80.0,,False,"k,p",k,4000.0,True,2.0,100.0,1.0,"90,90","0.19952623149688797,0",0.0,2.0,7.0,2.0,140.0,550.0,"white,black",gray,2.0,4.0,2.0,13.276666666956082,"[9.240000013960525,13.429999991785735,13.384999998379499,13.280000013764948,13.325000007171184,13.339999975869432,13.230000011390075,13.384999998379499,13.340000004973263,13.254999998025596,13.349999993806705,13.405000005150214,13.334999996004626,13.405000005150214,13.310000009369105,13.37000000057742,13.349999993806705,16.349999990779907,10.225000005448237,13.375000009546056,13.32999998703599,13.355000002775341,13.340000004973263,13.310000009369105,13.314999989233911,13.364999991608784,13.315000018337741,16.4249999797903,10.364999994635582,13.270000024931505,13.359999982640147,13.364999991608784,13.195000006817281,13.315000018337741,13.474999985191971,13.265000015962869,13.27499997569248,13.435000000754371,13.305000000400469,13.440000009723008,13.355000002775341,13.189999997848645,13.44999999855645,13.340000004973263,13.32999998703599,13.315000018337741,13.399999996181577,13.32999998703599,13.225000002421439,13.37000000057742,13.395000016316772,13.240000000223517,13.419999973848462,13.300000020535663,13.334999996004626,13.319999998202547,13.44999999855645,13.13000000664033,13.394999987212941,13.399999996181577,13.380000018514693,13.399999996181577,13.229999982286245,13.280000013764948,13.544999994337559,13.230000011390075]",66.0,960.0,468.5,False,20.0,20.0,black,1.0,True,2.0,"45,-45",black,1920.0,937.0,,
87,html-keyboard-response,87,181486,0.0-16.7-3.7,,<h2 style='background: white;padding: 10px;'> <font color='red'> Wrong. </font>  </h2>,,,,,,,,,,,,,,,,,,,,,,,,,,,,,,,,,,,,,,,,,
88,html-keyboard-response,88,181988,0.0-16.8-0.8,,<font color='grey'>coh1</font>,,,,,,,,,,,,,,,,,,,,,,,,,,,,,,,,,,,,,,,,,
89,html-keyboard-response,89,182240,0.0-16.8-1.8,,"<div style=""font-size:60px;"">+</div>",,,,,,,,,,,,,,,,,,,,,,,,,,,,,,,,,,,,,,,,,
90,RDK,90,183858,0.0-16.8-2.8,1617.2000000078697,,75.0,,True,"k,p",k,4000.0,True,2.0,100.0,1.0,"90,90","0.12589254117941676,0",0.0,2.0,7.0,2.0,140.0,550.0,"white,black",gray,2.0,4.0,2.0,13.335330578477375,"[10.084999987157062,13.390000007348135,13.189999997848645,13.360000011743978,13.214999984484166,13.405000005150214,13.299999991431832,13.260000006994233,13.375000009546056,13.454999978421256,13.470000005327165,13.225000002421439,13.230000011390075,13.405000005150214,13.334999996004626,16.31999999517575,10.344999987864867,13.384999998379499,13.25000001816079,13.264999986859038,13.355000002775341,13.440000009723008,13.32999998703599,13.319999998202547,13.380000018514693,13.334999996004626,13.240000000223517,13.435000000754371,13.32999998703599,13.319999998202547,13.33000001613982,13.32999998703599,13.445000018691644,13.240000000223517,13.28999997349456,13.300000020535663,13.420000002952293,13.359999982640147,13.355000002775341,13.275000004796311,13.360000011743978,13.269999995827675,13.37000000057742,13.309999980265275,13.310000009369105,13.379999989410862,13.395000016316772,17.070000001695007,9.609999979147688,13.275000004796311,13.41000001411885,13.37000000057742,13.240000000223517,13.405000005150214,13.32999998703599,13.230000011390075,13.420000002952293,13.324999978067353,13.350000022910535,13.394999987212941,13.280000013764948,13.240000000223517,13.349999993806705,13.40999998501502,13.345000013941899,13.299999991431832,13.49000001209788,13.199999986682087,13.345000013941899,13.29000000259839,13.299999991431832,13.444999989587814,13.375000009546056,13.260000006994233,13.264999986859038,13.520000007702038,13.240000000223517,13.459999987389892,13.245000009192154,13.225000002421439,13.379999989410862,13.414999993983656,13.225000002421439,13.33000001613982,13.349999993806705,13.334999996004626,13.470000005327165,13.420000002952293,13.149999984307215,13.455000007525086,13.355000002775341,13.195000006817281,13.420000002952293,13.429999991785735,13.199999986682087,13.33000001613982,16.364999988581985,10.364999994635582,13.285000022733584,13.40999998501502,13.245000009192154,13.405000005150214,13.374999980442226,13.275000004796311,13.310000009369105,13.40999998501502,13.275000004796311,13.334999996004626,13.480000023264438,13.164999982109293,13.325000007171184,13.435000000754371,13.234999991254881,13.340000004973263,13.470000005327165,13.394999987212941,13.300000020535663,13.284999993629754,13.244999980088323,13.37000000057742,16.510000015841797]",121.0,960.0,468.5,False,20.0,20.0,black,1.0,True,2.0,"45,-45",black,1920.0,937.0,,
91,html-keyboard-response,91,184411,0.0-16.8-3.8,,<h2 style='background: white;padding: 10px;'> <font color='green'>Correct! </font> </h2>,,,,,,,,,,,,,,,,,,,,,,,,,,,,,,,,,,,,,,,,,
92,html-keyboard-response,92,184913,0.0-16.9-0.9,,<font color='grey'>coh2</font>,,,,,,,,,,,,,,,,,,,,,,,,,,,,,,,,,,,,,,,,,
93,html-keyboard-response,93,185165,0.0-16.9-1.9,,"<div style=""font-size:60px;"">+</div>",,,,,,,,,,,,,,,,,,,,,,,,,,,,,,,,,,,,,,,,,
94,RDK,94,186079,0.0-16.9-2.9,913.2699999900067,,75.0,,True,"k,p",k,4000.0,True,2.0,100.0,1.0,"90,90","0.31622776601683794,0",0.0,2.0,7.0,2.0,140.0,550.0,"white,black",gray,2.0,4.0,2.0,13.230441176240086,"[6.135000003268942,13.359999982640147,13.140000024577603,13.314999989233911,13.390000007348135,13.37000000057742,13.314999989233911,13.360000011743978,13.359999982640147,13.340000004973263,13.299999991431832,13.405000005150214,13.254999998025596,13.435000000754371,13.245000009192154,13.299999991431832,13.355000002775341,13.405000005150214,13.214999984484166,13.400000025285408,13.319999998202547,13.500000000931323,13.229999982286245,13.33000001613982,13.254999998025596,13.459999987389892,13.230000011390075,13.349999993806705,13.44999999855645,13.310000009369105,13.399999996181577,13.244999980088323,13.375000009546056,13.295000011567026,13.429999991785735,13.219999993452802,16.564999998081475,10.145000007469207,13.349999993806705,13.414999993983656,13.305000000400469,13.255000027129427,13.32999998703599,13.455000007525086,13.134999986505136,13.52999999653548,13.200000015785918,13.275000004796311,13.399999996181577,13.44999999855645,13.24999998905696,13.334999996004626,13.355000002775341,13.360000011743978,13.355000002775341,13.40999998501502,13.340000004973263,13.154999993275851,13.475000014295802,16.294999979436398,11.545000015757978,12.144999986048788,13.255000027129427,13.399999996181577,13.305000000400469,13.309999980265275,13.505000009899959,13.264999986859038]",68.0,960.0,468.5,False,20.0,20.0,black,1.0,True,2.0,"45,-45",black,1920.0,937.0,,
95,html-keyboard-response,95,186632,0.0-16.9-3.9,,<h2 style='background: white;padding: 10px;'> <font color='green'>Correct! </font> </h2>,,,,,,,,,,,,,,,,,,,,,,,,,,,,,,,,,,,,,,,,,
96,html-keyboard-response,96,187033,0.0-16.10-0.10,,<font color='grey'>coh1</font>,,,,,,,,,,,,,,,,,,,,,,,,,,,,,,,,,,,,,,,,,
97,html-keyboard-response,97,187284,0.0-16.10-1.10,,"<div style=""font-size:60px;"">+</div>",,,,,,,,,,,,,,,,,,,,,,,,,,,,,,,,,,,,,,,,,
98,RDK,98,188216,0.0-16.10-2.10,931.1599999782628,,80.0,,False,"k,p",k,4000.0,True,2.0,100.0,1.0,"90,90","0.12589254117941676,0",0.0,2.0,7.0,2.0,140.0,550.0,"white,black",gray,2.0,4.0,2.0,13.250642856915615,"[7.374999986495823,13.284999993629754,15.22500001010485,11.404999997466803,13.384999998379499,13.364999991608784,13.245000009192154,13.394999987212941,13.310000009369105,13.340000004973263,13.279999984661117,13.390000007348135,13.269999995827675,13.435000000754371,13.334999996004626,13.21000000461936,13.460000016493723,13.470000005327165,13.179999979911372,13.349999993806705,13.390000007348135,16.869999992195517,9.665000019595027,13.40999998501502,13.319999998202547,13.475000014295802,13.115000008838251,13.37000000057742,13.344999984838068,13.384999998379499,13.260000006994233,13.44999999855645,13.360000011743978,13.240000000223517,13.349999993806705,13.405000005150214,13.324999978067353,13.21000000461936,13.425000011920929,13.340000004973263,13.240000000223517,13.435000000754371,13.224999973317608,13.540000014472753,13.355000002775341,13.164999982109293,13.315000018337741,13.520000007702038,13.175000000046566,13.389999978244305,13.395000016316772,13.189999997848645,13.364999991608784,13.414999993983656,13.265000015962869,13.334999996004626,13.394999987212941,13.295000011567026,13.394999987212941,13.260000006994233,13.390000007348135,13.360000011743978,13.259999977890402,13.399999996181577,13.280000013764948,13.505000009899959,13.299999991431832,13.230000011390075,13.384999998379499,13.344999984838068]",70.0,960.0,468.5,False,20.0,20.0,black,1.0,True,2.0,"45,-45",black,1920.0,937.0,,
99,html-keyboard-response,99,188768,0.0-16.10-3.10,,<h2 style='background: white;padding: 10px;'> <font color='red'> Wrong. </font>  </h2>,,,,,,,,,,,,,,,,,,,,,,,,,,,,,,,,,,,,,,,,,
100,html-keyboard-response,100,189270,0.0-16.11-0.11,,<font color='grey'>coh2</font>,,,,,,,,,,,,,,,,,,,,,,,,,,,,,,,,,,,,,,,,,
101,html-keyboard-response,101,189520,0.0-16.11-1.11,,"<div style=""font-size:60px;"">+</div>",,,,,,,,,,,,,,,,,,,,,,,,,,,,,,,,,,,,,,,,,
102,RDK,102,190386,0.0-16.11-2.11,865.1850000023842,,80.0,,True,"k,p",p,4000.0,True,2.0,100.0,1.0,"-90,-90","0.31622776601683794,0",0.0,2.0,7.0,2.0,140.0,550.0,"white,black",gray,2.0,4.0,2.0,13.358437499846332,"[11.709999991580844,13.305000000400469,13.300000020535663,13.419999973848462,13.275000004796311,13.260000006994233,13.394999987212941,13.255000027129427,13.35499997367151,13.390000007348135,13.25000001816079,13.44999999855645,13.32999998703599,13.260000006994233,13.474999985191971,13.319999998202547,13.21000000461936,13.399999996181577,13.399999996181577,13.325000007171184,13.180000009015203,13.444999989587814,13.535000005504116,13.150000013411045,13.314999989233911,13.305000000400469,13.394999987212941,16.315000015310943,10.409999988041818,13.254999998025596,13.365000020712614,13.340000004973263,13.229999982286245,13.485000003129244,13.215000013587996,13.37000000057742,13.374999980442226,13.269999995827675,13.44999999855645,16.275000001769513,10.464999999385327,13.25000001816079,13.340000004973263,13.224999973317608,13.460000016493723,13.514999998733401,13.100000011036173,13.314999989233911,13.349999993806705,13.380000018514693,13.334999996004626,13.279999984661117,13.460000016493723,13.234999991254881,13.279999984661117,13.514999998733401,13.29000000259839,13.185000017983839,13.494999991962686,13.33000001613982,13.299999991431832,13.559999992139637,13.109999999869615,16.39999999315478]",64.0,960.0,468.5,False,20.0,20.0,black,1.0,True,2.0,"45,-45",black,1920.0,937.0,,
103,html-keyboard-response,103,190939,0.0-16.11-3.11,,<h2 style='background: white;padding: 10px;'> <font color='green'>Correct! </font> </h2>,,,,,,,,,,,,,,,,,,,,,,,,,,,,,,,,,,,,,,,,,
104,html-keyboard-response,104,191440,0.0-16.12-0.12,,<font color='grey'>coh1</font>,,,,,,,,,,,,,,,,,,,,,,,,,,,,,,,,,,,,,,,,,
